"","Sub_ID","Trial","Type","D_RT","D_Word","Outlier","D_Zscore","Correct"
"1",157,1,1,"710","browse","false",-0.437,1
"2",67,1,1,"1,094","refrigerant","false",0.825,1
"3",120,1,1,"587","gaining","false",-0.645,1
"4",21,1,1,"984","cheerless","false",0.025,1
"5",236,1,1,"577","pattered","false",-0.763,1
"6",236,2,1,"715","conjures","false",-0.364,1
"7",236,5,1,"826","censorship","false",-0.043,1
"8",236,6,1,"928","beckon","false",0.251,1
"9",236,8,1,"1,047","superscribe","false",0.595,1
"10",236,10,1,"1,296","husbandry","false",1.315,1
"11",236,12,1,"1,452","nitwit","false",1.766,1
"12",236,13,1,"674","factor","false",-0.483,1
"13",236,17,1,"782","intuitively","false",-0.17,1
"14",236,18,1,"1,469","precipitating","false",1.815,1
"15",236,19,1,"785","pianists","false",-0.162,1
"16",236,20,1,"1,007","redistribute","false",0.48,1
"17",236,21,1,"548","lifer","false",-0.847,1
"18",236,26,1,"740","translucent","false",-0.292,1
"19",236,28,1,"1,515","stooges","false",1.948,1
"20",236,29,1,"746","punctual","false",-0.275,1
"21",236,30,1,"606","narrated","false",-0.679,1
"22",236,31,1,"588","unanswerable","false",-0.731,1
"23",236,33,1,"1,011","staunchest","false",0.491,1
"24",236,35,1,"669","dartboard","false",-0.497,1
"25",236,36,1,"1,112","Hamilton's","false",0.783,1
"26",236,37,1,"714","taxidermy","false",-0.367,1
"27",236,38,1,"621","aggressively","false",-0.636,1
"28",236,39,1,"625","horoscope","false",-0.624,1
"29",236,40,1,"502","slob","false",-0.98,1
"30",236,43,1,"733","longshoremen's","false",-0.312,1
"31",236,46,1,"876","laundered","false",0.101,1
"32",236,49,1,"1,391","oversimplification","false",1.589,1
"33",236,51,1,"1,068","Pooh","false",0.656,1
"34",236,53,1,"698","knocking","false",-0.413,1
"35",236,54,1,"917","omnibus","false",0.22,1
"36",236,56,1,"1,075","blips","false",0.676,1
"37",236,57,1,"831","curriculum","false",-0.029,1
"38",236,59,1,"1,115","lustily","false",0.792,1
"39",236,64,1,"755","waging","false",-0.249,1
"40",236,65,1,"533","floors","false",-0.89,1
"41",157,3,1,"679","scandalized","false",-0.557,1
"42",157,7,1,"596","cabinet","false",-0.879,1
"43",157,8,1,"777","Wilfred","false",-0.178,1
"44",157,10,1,"505","valve","false",-1.231,1
"45",157,11,1,"644","reliance","false",-0.693,1
"46",157,12,1,"444","greenly","false",-1.467,1
"47",157,13,1,"560","sphincter","false",-1.018,1
"48",157,19,1,"704","commuting","false",-0.461,1
"49",157,22,1,"723","kilometers","false",-0.387,1
"50",157,27,1,"602","lipstick","false",-0.855,1
"51",157,29,1,"666","contentious","false",-0.608,1
"52",157,30,1,"537","streets","false",-1.107,1
"53",157,33,1,"622","pilfer","false",-0.778,1
"54",157,35,1,"618","Lucy","false",-0.794,1
"55",157,36,1,"1,034","blabbermouth","false",0.817,1
"56",157,37,1,"763","skateboard","false",-0.232,1
"57",157,38,1,"741","diagnosticians","false",-0.317,1
"58",157,41,1,"614","cull","false",-0.809,1
"59",157,44,1,"756","Faust","false",-0.259,1
"60",157,46,1,"790","geyser","false",-0.128,1
"61",157,48,1,"748","sheered","false",-0.29,1
"62",157,50,1,"578","seminal","false",-0.948,1
"63",157,51,1,"721","exercising","false",-0.395,1
"64",157,52,1,"600","movie","false",-0.863,1
"65",157,54,1,"495","lends","false",-1.27,1
"66",157,56,1,"621","deplore","false",-0.782,1
"67",157,61,1,"605","prescribes","false",-0.844,1
"68",157,66,1,"806","intermediate","false",-0.066,1
"69",157,70,1,"1,035","contingent","false",0.821,1
"70",157,72,1,"698","vaporize","false",-0.484,1
"71",157,74,1,"498","bats","false",-1.258,1
"72",157,75,1,"543","drooping","false",-1.084,1
"73",157,76,1,"771","disapprobation","false",-0.201,1
"74",157,77,1,"537","extremes","false",-1.107,1
"75",157,78,1,"400","bubbly","false",-1.637,1
"76",157,79,1,"516","responsibilities","false",-1.188,1
"77",157,80,1,"367","infinitive","false",-1.765,1
"78",157,81,1,"294","citadel","false",-2.048,1
"79",157,84,1,"432","middles","false",-1.514,1
"80",157,86,1,"965","enmities","false",0.55,1
"81",157,87,1,"606","confound","false",-0.84,1
"82",157,88,1,"475","mapping","false",-1.347,1
"83",157,90,1,"514","incomparably","false",-1.196,1
"84",157,93,1,"733","abominate","false",-0.348,1
"85",157,94,1,"432","jug","false",-1.514,1
"86",157,96,1,"553","allowable","false",-1.045,1
"87",157,97,1,"680","hieroglyphic","false",-0.554,1
"88",157,100,1,"529","calculating","false",-1.138,1
"89",157,101,1,"503","celebrations","false",-1.239,1
"90",157,102,1,"553","predecessor","false",-1.045,1
"91",157,103,1,"505","Portugal","false",-1.231,1
"92",157,106,1,"473","solidity","false",-1.355,1
"93",157,108,1,"573","yielding","false",-0.968,1
"94",157,110,1,"996","substitutionary","false",0.67,1
"95",157,111,1,"581","breathing","false",-0.937,1
"96",157,113,1,"611","bondsman","false",-0.821,1
"97",157,114,1,"714","criminals","false",-0.422,1
"98",157,115,1,"601","insurrections","false",-0.859,1
"99",157,121,1,"665","ragbag","false",-0.612,1
"100",157,124,1,"590","Scottish","false",-0.902,1
"101",157,126,1,"548","neck","false",-1.064,1
"102",157,128,1,"680","supposed","false",-0.554,1
"103",157,131,1,"557","outcasts","false",-1.03,1
"104",157,132,1,"653","drafting","false",-0.658,1
"105",157,139,1,"752","also","false",-0.275,1
"106",157,140,1,"569","faintly","false",-0.983,1
"107",157,141,1,"485","affronting","false",-1.308,1
"108",157,142,1,"626","unabashed","false",-0.763,1
"109",157,144,1,"561","highlighting","false",-1.014,1
"110",157,149,1,"621","uphold","false",-0.782,1
"111",157,151,1,"568","paper's","false",-0.987,1
"112",157,161,1,"712","maniacal","false",-0.43,1
"113",157,163,1,"594","patron","false",-0.886,1
"114",157,164,1,"563","bride","false",-1.006,1
"115",157,166,1,"737","eightieth","false",-0.333,1
"116",157,168,1,"583","children's","false",-0.929,1
"117",157,174,1,"889","fertilizer","false",0.255,1
"118",157,176,1,"806","monkey","false",-0.066,1
"119",157,177,1,"688","expenses","false",-0.523,1
"120",157,178,1,"887","jam","false",0.248,1
"121",157,182,1,"504","informality","false",-1.235,1
"122",157,183,1,"813","Austin","false",-0.039,1
"123",157,186,1,"744","sledding","false",-0.306,1
"124",157,187,1,"719","classified","false",-0.403,1
"125",157,189,1,"870","racketeer","false",0.182,1
"126",157,191,1,"689","cellophane","false",-0.519,1
"127",157,192,1,"1,264","needlecraft","false",1.707,1
"128",157,195,1,"1,004","tenth","false",0.701,1
"129",157,199,1,"605","desertion","false",-0.844,1
"130",157,205,1,"705","distortable","false",-0.457,1
"131",157,207,1,"667","offspring","false",-0.604,1
"132",157,213,1,"1,138","oscillograph","false",1.219,1
"133",157,214,1,"939","concession","false",0.449,1
"134",157,216,1,"752","traced","false",-0.275,1
"135",157,219,1,"744","tact","false",-0.306,1
"136",157,221,1,"727","evasions","false",-0.372,1
"137",157,223,1,"841","commendable","false",0.07,1
"138",157,228,1,"655","framework","false",-0.65,1
"139",157,230,1,"934","nocturne","false",0.43,1
"140",157,231,1,"924","trashcan","false",0.391,1
"141",157,232,1,"885","novel's","false",0.24,1
"142",157,236,1,"623","policed","false",-0.774,1
"143",157,239,1,"641","spiritualize","false",-0.705,1
"144",157,240,1,"934","roofer's","false",0.43,1
"145",157,242,1,"1,837","reimbursements","false",3.925,1
"146",157,243,1,"703","Laos","false",-0.465,1
"147",157,244,1,"794","cluttered","false",-0.112,1
"148",157,245,1,"888","Olga","false",0.252,1
"149",157,248,1,"629","traditionalist","false",-0.751,1
"150",157,251,1,"715","distasteful","false",-0.418,1
"151",157,256,1,"584","weeks","false",-0.925,1
"152",157,258,1,"891","egalitarian","false",0.263,1
"153",157,260,1,"812","palpitate","false",-0.043,1
"154",157,263,1,"762","honorary","false",-0.236,1
"155",157,266,1,"821","patient's","false",-0.008,1
"156",157,267,1,"1,153","scrounging","false",1.277,1
"157",157,269,1,"807","unclenched","false",-0.062,1
"158",157,272,1,"709","thundercloud","false",-0.441,1
"159",157,274,1,"868","agglutination","false",0.174,1
"160",157,275,1,"679","costly","false",-0.557,1
"161",157,276,1,"691","attack","false",-0.511,1
"162",157,278,1,"676","Haiti","false",-0.569,1
"163",157,281,1,"806","kinds","false",-0.066,1
"164",157,283,1,"764","deviation","false",-0.228,1
"165",157,284,1,"536","tumbles","false",-1.111,1
"166",157,285,1,"641","involved","false",-0.705,1
"167",157,286,1,"577","definite","false",-0.952,1
"168",157,287,1,"597","groan","false",-0.875,1
"169",157,290,1,"574","rightfully","false",-0.964,1
"170",157,291,1,"605","Huey","false",-0.844,1
"171",157,292,1,"749","gallon","false",-0.286,1
"172",157,295,1,"710","cheery","false",-0.437,1
"173",157,296,1,"676","balance","false",-0.569,1
"174",157,297,1,"1,081","tablespoonfuls","false",0.999,1
"175",157,298,1,"646","overrated","false",-0.685,1
"176",157,303,1,"778","vignette","false",-0.174,1
"177",157,304,1,"886","unglamorous","false",0.244,1
"178",157,305,1,"719","sickbed","false",-0.403,1
"179",157,308,1,"832","stance","false",0.035,1
"180",157,309,1,"665","bumps","false",-0.612,1
"181",157,312,1,"808","magnetisms","false",-0.058,1
"182",157,313,1,"1,156","unveiled","false",1.289,1
"183",157,314,1,"553","spoonfeed","false",-1.045,1
"184",157,316,1,"913","certifiable","false",0.348,1
"185",157,320,1,"855","playwrights","false",0.124,1
"186",157,322,1,"757","dwarfed","false",-0.255,1
"187",157,324,1,"589","journalism","false",-0.906,1
"188",157,325,1,"653","assets","false",-0.658,1
"189",157,326,1,"830","scolding","false",0.027,1
"190",157,327,1,"551","sexism","false",-1.053,1
"191",157,330,1,"721","confiscation","false",-0.395,1
"192",157,333,1,"624","endpoints","false",-0.77,1
"193",157,335,1,"755","flicking","false",-0.263,1
"194",157,337,1,"694","rumbled","false",-0.499,1
"195",157,338,1,"727","disgrace","false",-0.372,1
"196",157,339,1,"653","rivalled","false",-0.658,1
"197",157,340,1,"546","subs","false",-1.072,1
"198",157,342,1,"758","follicular","false",-0.252,1
"199",157,343,1,"922","inure","false",0.383,1
"200",157,350,1,"634","petrify","false",-0.732,1
"201",157,351,1,"660","onsets","false",-0.631,1
"202",157,355,1,"541","icy","false",-1.092,1
"203",157,358,1,"631","clawing","false",-0.743,1
"204",157,361,1,"591","trusty","false",-0.898,1
"205",157,363,1,"583","anvil","false",-0.929,1
"206",157,364,1,"604","destructive","false",-0.848,1
"207",157,365,1,"642","damaged","false",-0.701,1
"208",157,366,1,"739","embalm","false",-0.325,1
"209",157,367,1,"566","beetles","false",-0.995,1
"210",157,368,1,"581","rancid","false",-0.937,1
"211",157,369,1,"527","Zambia","false",-1.146,1
"212",157,370,1,"463","pursue","false",-1.394,1
"213",157,372,1,"616","jewels","false",-0.801,1
"214",157,374,1,"726","historic","false",-0.375,1
"215",157,376,1,"440","choke","false",-1.483,1
"216",157,379,1,"684","helps","false",-0.538,1
"217",157,382,1,"746","indirectly","false",-0.298,1
"218",157,384,1,"446","goals","false",-1.459,1
"219",157,388,1,"735","bore","false",-0.341,1
"220",157,389,1,"650","perforate","false",-0.67,1
"221",157,391,1,"688","bang","false",-0.523,1
"222",157,394,1,"668","consultants","false",-0.6,1
"223",157,395,1,"652","visits","false",-0.662,1
"224",157,396,1,"653","demoralize","false",-0.658,1
"225",157,397,1,"545","soundly","false",-1.076,1
"226",157,398,1,"709","pixels","false",-0.441,1
"227",157,400,1,"724","awestruck","false",-0.383,1
"228",157,401,1,"634","complementary","false",-0.732,1
"229",157,402,1,"826","hurtled","false",0.012,1
"230",157,405,1,"756","blots","false",-0.259,1
"231",157,407,1,"790","xerox","false",-0.128,1
"232",157,409,1,"1,352","predisposition","false",2.048,1
"233",157,410,1,"904","maturation","false",0.314,1
"234",157,413,1,"1,004","retranslated","false",0.701,1
"235",157,414,1,"509","federate","false",-1.215,1
"236",157,415,1,"557","Miami","false",-1.03,1
"237",157,417,1,"943","squall","false",0.465,1
"238",157,418,1,"812","aqualung","false",-0.043,1
"239",157,420,1,"646","nearsightedly","false",-0.685,1
"240",157,421,1,"677","snow","false",-0.565,1
"241",157,423,1,"888","sluiceway","false",0.252,1
"242",157,424,1,"636","shamrock","false",-0.724,1
"243",157,425,1,"630","successively","false",-0.747,1
"244",157,426,1,"561","piddle","false",-1.014,1
"245",157,432,1,"898","wistfully","false",0.29,1
"246",157,433,1,"653","squelch","false",-0.658,1
"247",157,434,1,"748","reddish","false",-0.29,1
"248",157,435,1,"585","advised","false",-0.921,1
"249",157,438,1,"1,025","friendlier","false",0.782,1
"250",157,440,1,"782","closeups","false",-0.159,1
"251",157,442,1,"750","urbanize","false",-0.283,1
"252",157,443,1,"828","gashes","false",0.019,1
"253",157,445,1,"795","prayer","false",-0.108,1
"254",157,448,1,"627","peppermint","false",-0.759,1
"255",157,451,1,"979","rotating","false",0.604,1
"256",157,456,1,"899","catchy","false",0.294,1
"257",157,458,1,"636","restrained","false",-0.724,1
"258",157,459,1,"748","you'd","false",-0.29,1
"259",157,460,1,"640","defensiveness","false",-0.708,1
"260",157,461,1,"512","foul","false",-1.204,1
"261",157,463,1,"667","polled","false",-0.604,1
"262",157,465,1,"899","cantankerous","false",0.294,1
"263",157,468,1,"659","Jonah","false",-0.635,1
"264",157,470,1,"612","bow","false",-0.817,1
"265",157,472,1,"643","thrillers","false",-0.697,1
"266",157,476,1,"645","overarch","false",-0.689,1
"267",157,481,1,"758","lasted","false",-0.252,1
"268",157,482,1,"877","cadet","false",0.209,1
"269",157,483,1,"677","bogged","false",-0.565,1
"270",157,484,1,"697","commerce","false",-0.488,1
"271",157,486,1,"1,241","taunted","false",1.618,1
"272",157,487,1,"597","Nancy","false",-0.875,1
"273",157,489,1,"850","unloose","false",0.105,1
"274",157,491,1,"1,093","enviable","false",1.045,1
"275",157,492,1,"1,145","Chesapeake","false",1.246,1
"276",157,493,1,"696","allegedly","false",-0.492,1
"277",157,494,1,"615","glowered","false",-0.805,1
"278",157,496,1,"671","symmetrical","false",-0.588,1
"279",157,499,1,"814","hydrant","false",-0.035,1
"280",157,500,1,"880","figs","false",0.221,1
"281",159,1,1,"401","cells","false",-1.531,1
"282",159,3,1,"412","assignments","false",-1.472,1
"283",159,6,1,"575","wisest","false",-0.603,1
"284",159,7,1,"585","bloodsucker","false",-0.549,1
"285",159,8,1,"614","amble","false",-0.395,1
"286",159,12,1,"491","grammar","false",-1.051,1
"287",159,15,1,"799","dumbbells","false",0.592,1
"288",159,18,1,"687","clamor","false",-0.005,1
"289",159,19,1,"623","paradigm","false",-0.347,1
"290",159,20,1,"675","omits","false",-0.069,1
"291",159,21,1,"622","precipitated","false",-0.352,1
"292",159,22,1,"489","insured","false",-1.061,1
"293",159,28,1,"586","silences","false",-0.544,1
"294",159,30,1,"500","manors","false",-1.003,1
"295",159,31,1,"478","Tara","false",-1.12,1
"296",159,36,1,"595","undercover","false",-0.496,1
"297",159,37,1,"529","sportsmen's","false",-0.848,1
"298",159,38,1,"576","varieties","false",-0.597,1
"299",159,39,1,"504","sampling","false",-0.981,1
"300",159,40,1,"514","consequently","false",-0.928,1
"301",159,42,1,"607","Judy","false",-0.432,1
"302",159,44,1,"605","minesweeper","false",-0.443,1
"303",159,47,1,"493","potting","false",-1.04,1
"304",159,49,1,"982","recollections","false",1.568,1
"305",159,54,1,"1,009","pixilated","false",1.712,1
"306",159,55,1,"557","trails","false",-0.699,1
"307",159,56,1,"426","chick","false",-1.397,1
"308",159,57,1,"544","douche","false",-0.768,1
"309",159,59,1,"565","nailing","false",-0.656,1
"310",159,62,1,"493","applying","false",-1.04,1
"311",159,64,1,"814","Hamiltonian","false",0.672,1
"312",159,68,1,"499","sleeper","false",-1.008,1
"313",159,71,1,"686","malice","false",-0.011,1
"314",159,76,1,"948","herein","false",1.387,1
"315",159,77,1,"604","anthem","false",-0.448,1
"316",159,78,1,"422","adjust","false",-1.419,1
"317",159,79,1,"545","binder","false",-0.763,1
"318",159,82,1,"512","knowingly","false",-0.939,1
"319",159,84,1,"818","subdue","false",0.693,1
"320",159,86,1,"739","cutouts","false",0.272,1
"321",159,88,1,"474","endangering","false",-1.141,1
"322",159,90,1,"545","servings","false",-0.763,1
"323",159,93,1,"636","fluctuating","false",-0.277,1
"324",159,96,1,"634","garishness","false",-0.288,1
"325",159,97,1,"784","confabulated","false",0.512,1
"326",159,100,1,"514","institute","false",-0.928,1
"327",159,106,1,"526","alternately","false",-0.864,1
"328",159,108,1,"564","increase","false",-0.661,1
"329",159,110,1,"507","impair","false",-0.965,1
"330",159,111,1,"555","declined","false",-0.709,1
"331",159,113,1,"541","cobble","false",-0.784,1
"332",159,124,1,"957","camelhair","false",1.435,1
"333",159,125,1,"997","flamethrower","false",1.648,1
"334",159,130,1,"550","unsocial","false",-0.736,1
"335",159,131,1,"608","ousting","false",-0.427,1
"336",159,135,1,"586","volatility","false",-0.544,1
"337",159,140,1,"633","scrutiny","false",-0.293,1
"338",159,141,1,"481","breeze","false",-1.104,1
"339",159,142,1,"533","makings","false",-0.827,1
"340",159,143,1,"518","heroine","false",-0.907,1
"341",159,144,1,"508","rusting","false",-0.96,1
"342",159,146,1,"562","presides","false",-0.672,1
"343",159,149,1,"861","deposits","false",0.923,1
"344",159,150,1,"519","received","false",-0.901,1
"345",159,152,1,"561","disrupt","false",-0.677,1
"346",159,153,1,"618","petitions","false",-0.373,1
"347",159,154,1,"485","baggy","false",-1.083,1
"348",159,156,1,"483","forgot","false",-1.093,1
"349",159,158,1,"464","tinder","false",-1.195,1
"350",159,166,1,"502","fatal","false",-0.992,1
"351",159,167,1,"1,010","immeasurably","false",1.717,1
"352",159,168,1,"471","publicly","false",-1.157,1
"353",159,175,1,"624","uncritical","false",-0.341,1
"354",159,176,1,"496","daughters","false",-1.024,1
"355",159,180,1,"545","acquaint","false",-0.763,1
"356",159,181,1,"663","skyway","false",-0.133,1
"357",159,186,1,"437","stake","false",-1.339,1
"358",159,187,1,"747","leashes","false",0.315,1
"359",159,196,1,"422","driving","false",-1.419,1
"360",159,198,1,"604","authority","false",-0.448,1
"361",159,204,1,"666","synagogue","false",-0.117,1
"362",159,207,1,"551","alienated","false",-0.731,1
"363",159,214,1,"669","culprit","false",-0.101,1
"364",159,215,1,"703","selected","false",0.08,1
"365",159,220,1,"555","materials","false",-0.709,1
"366",159,222,1,"510","handle","false",-0.949,1
"367",159,223,1,"721","defends","false",0.176,1
"368",159,229,1,"722","newscast","false",0.181,1
"369",159,231,1,"918","twitter","false",1.227,1
"370",159,233,1,"558","steadily","false",-0.693,1
"371",159,234,1,"716","freeboard","false",0.149,1
"372",159,235,1,"603","debtor","false",-0.453,1
"373",159,237,1,"559","tango","false",-0.688,1
"374",159,238,1,"528","sofa","false",-0.853,1
"375",159,239,1,"537","humid","false",-0.805,1
"376",159,240,1,"765","adheres","false",0.411,1
"377",159,243,1,"798","lovelies","false",0.587,1
"378",159,245,1,"622","documentation","false",-0.352,1
"379",159,247,1,"555","unreal","false",-0.709,1
"380",159,256,1,"614","awnings","false",-0.395,1
"381",159,257,1,"564","bogus","false",-0.661,1
"382",159,262,1,"638","parish","false",-0.267,1
"383",159,267,1,"701","sanctify","false",0.069,1
"384",159,270,1,"788","waterskiing","false",0.533,1
"385",159,271,1,"784","melodrama","false",0.512,1
"386",159,275,1,"915","crispness","false",1.211,1
"387",159,277,1,"563","examiner","false",-0.667,1
"388",159,278,1,"580","furnishing","false",-0.576,1
"389",159,283,1,"630","resurface","false",-0.309,1
"390",159,287,1,"879","splendid","false",1.019,1
"391",159,289,1,"485","accent","false",-1.083,1
"392",159,291,1,"617","detraction","false",-0.379,1
"393",159,292,1,"639","muggers","false",-0.261,1
"394",159,293,1,"496","repeats","false",-1.024,1
"395",159,294,1,"544","digesting","false",-0.768,1
"396",159,297,1,"586","cooperation","false",-0.544,1
"397",159,299,1,"564","exploratory","false",-0.661,1
"398",159,302,1,"624","kerchief","false",-0.341,1
"399",159,303,1,"718","hemoglobin","false",0.16,1
"400",159,305,1,"592","Gorgon","false",-0.512,1
"401",159,308,1,"741","dismayed","false",0.283,1
"402",159,310,1,"559","remarked","false",-0.688,1
"403",159,311,1,"573","railroads","false",-0.613,1
"404",159,312,1,"604","screenings","false",-0.448,1
"405",159,313,1,"594","Moscow's","false",-0.501,1
"406",159,320,1,"517","robbery","false",-0.912,1
"407",159,321,1,"651","peckish","false",-0.197,1
"408",159,322,1,"620","widen","false",-0.363,1
"409",159,325,1,"712","earnings","false",0.128,1
"410",159,326,1,"1,147","undulating","false",2.448,1
"411",159,327,1,"573","beneath","false",-0.613,1
"412",159,329,1,"681","emancipate","false",-0.037,1
"413",159,332,1,"528","nonsmoker","false",-0.853,1
"414",159,336,1,"618","costumes","false",-0.373,1
"415",159,339,1,"604","warranty","false",-0.448,1
"416",159,341,1,"753","spillover","false",0.347,1
"417",159,342,1,"774","billiard","false",0.459,1
"418",159,344,1,"555","bedfast","false",-0.709,1
"419",159,352,1,"718","prerogative","false",0.16,1
"420",159,356,1,"769","rheumatic","false",0.432,1
"421",159,358,1,"607","treasuries","false",-0.432,1
"422",159,359,1,"679","stab","false",-0.048,1
"423",159,362,1,"731","neurological","false",0.229,1
"424",159,363,1,"731","diaphragms","false",0.229,1
"425",159,364,1,"550","programming","false",-0.736,1
"426",159,370,1,"802","alloted","false",0.608,1
"427",159,373,1,"560","trucking","false",-0.683,1
"428",159,380,1,"706","unmistakable","false",0.096,1
"429",159,382,1,"636","oversize","false",-0.277,1
"430",159,383,1,"600","ragged","false",-0.469,1
"431",159,389,1,"776","styled","false",0.469,1
"432",159,392,1,"622","whitening","false",-0.352,1
"433",159,393,1,"617","pandemic","false",-0.379,1
"434",159,394,1,"663","brisker","false",-0.133,1
"435",159,396,1,"594","effective","false",-0.501,1
"436",159,398,1,"527","cheating","false",-0.859,1
"437",159,405,1,"730","Faustus","false",0.224,1
"438",159,406,1,"695","mirthless","false",0.037,1
"439",159,407,1,"574","exhaustion","false",-0.608,1
"440",159,411,1,"872","limitation","false",0.981,1
"441",159,413,1,"677","autocrats","false",-0.059,1
"442",159,416,1,"585","significance","false",-0.549,1
"443",159,417,1,"955","circumflex","false",1.424,1
"444",159,418,1,"913","vertebrae","false",1.2,1
"445",159,419,1,"627","purchases","false",-0.325,1
"446",159,422,1,"566","steamship","false",-0.651,1
"447",159,436,1,"632","angler","false",-0.299,1
"448",159,437,1,"727","provocative","false",0.208,1
"449",159,438,1,"564","suspenders","false",-0.661,1
"450",159,440,1,"604","ladybug","false",-0.448,1
"451",159,443,1,"718","quarterbacks","false",0.16,1
"452",159,444,1,"667","dribbled","false",-0.112,1
"453",159,445,1,"545","won","false",-0.763,1
"454",159,447,1,"591","waive","false",-0.517,1
"455",159,448,1,"687","aquamarine","false",-0.005,1
"456",159,455,1,"971","intuitions","false",1.509,1
"457",159,456,1,"618","viewfinder","false",-0.373,1
"458",159,458,1,"646","modulations","false",-0.224,1
"459",159,459,1,"778","profess","false",0.48,1
"460",159,461,1,"620","wrecker","false",-0.363,1
"461",159,466,1,"614","slouches","false",-0.395,1
"462",159,471,1,"755","curtsy","false",0.357,1
"463",159,473,1,"678","unionize","false",-0.053,1
"464",159,474,1,"820","bulked","false",0.704,1
"465",159,478,1,"583","inflict","false",-0.56,1
"466",159,479,1,"707","hypnotic","false",0.101,1
"467",159,480,1,"605","layoff","false",-0.443,1
"468",159,482,1,"680","translator","false",-0.043,1
"469",159,484,1,"599","token","false",-0.475,1
"470",159,488,1,"708","parlayed","false",0.107,1
"471",159,490,1,"507","fusty","false",-0.965,1
"472",159,491,1,"685","rapidity","false",-0.016,1
"473",159,495,1,"847","acrobatic","false",0.848,1
"474",159,496,1,"703","ruffled","false",0.08,1
"475",159,497,1,"701","plotted","false",0.069,1
"476",159,499,1,"579","seductive","false",-0.581,1
"477",160,1,1,"1,083","undomesticated","false",1.71,1
"478",160,3,1,"908","desiccate","false",0.925,1
"479",160,5,1,"682","nauseous","false",-0.09,1
"480",160,8,1,"732","glean","false",0.135,1
"481",160,11,1,"777","noisy","false",0.337,1
"482",160,12,1,"645","replay","false",-0.256,1
"483",160,14,1,"714","tersely","false",0.054,1
"484",160,17,1,"668","subdivision","false",-0.153,1
"485",160,18,1,"961","Latinize","false",1.163,1
"486",160,19,1,"705","waterproof","false",0.013,1
"487",160,20,1,"761","circuitous","false",0.265,1
"488",160,21,1,"697","adhesives","false",-0.022,1
"489",160,23,1,"626","fouled","false",-0.341,1
"490",160,25,1,"658","vermin","false",-0.197,1
"491",160,27,1,"550","increases","false",-0.682,1
"492",160,29,1,"540","retain","false",-0.727,1
"493",160,31,1,"721","wasted","false",0.085,1
"494",160,32,1,"765","reimbursement","false",0.283,1
"495",160,33,1,"638","tenors","false",-0.287,1
"496",160,34,1,"678","hallucinogenic","false",-0.108,1
"497",160,37,1,"957","typescript","false",1.145,1
"498",160,38,1,"632","sunlight","false",-0.314,1
"499",160,39,1,"646","intimately","false",-0.251,1
"500",160,42,1,"616","permits","false",-0.386,1
"501",160,43,1,"677","molesting","false",-0.112,1
"502",160,46,1,"546","escape's","false",-0.7,1
"503",160,47,1,"570","headstones","false",-0.592,1
"504",160,56,1,"935","phlegm","false",1.046,1
"505",160,62,1,"639","poster","false",-0.283,1
"506",160,64,1,"614","flatly","false",-0.395,1
"507",160,68,1,"782","skimpy","false",0.359,1
"508",160,71,1,"706","neutron","false",0.018,1
"509",160,76,1,"798","rapier","false",0.431,1
"510",160,77,1,"676","footbridge","false",-0.117,1
"511",160,80,1,"1,736","abutments","false",4.641,1
"512",160,81,1,"566","sweater","false",-0.61,1
"513",160,88,1,"1,033","system's","false",1.486,1
"514",160,89,1,"919","assiduous","false",0.974,1
"515",160,90,1,"816","renegade","false",0.512,1
"516",160,91,1,"1,111","earsplitting","false",1.836,1
"517",160,92,1,"590","antique","false",-0.503,1
"518",160,93,1,"701","corvette","false",-0.004,1
"519",160,97,1,"675","depended","false",-0.121,1
"520",160,98,1,"666","comrade","false",-0.162,1
"521",160,100,1,"841","vocalize","false",0.624,1
"522",160,102,1,"656","mainly","false",-0.206,1
"523",160,104,1,"622","progression","false",-0.359,1
"524",160,105,1,"639","honest","false",-0.283,1
"525",160,109,1,"842","motives","false",0.628,1
"526",160,110,1,"664","scarcely","false",-0.171,1
"527",160,111,1,"790","rifled","false",0.395,1
"528",160,112,1,"568","sneezing","false",-0.601,1
"529",160,113,1,"999","orchestras","false",1.333,1
"530",160,118,1,"708","unsurmountable","false",0.027,1
"531",160,119,1,"1,395","Shepard","false",3.111,1
"532",160,120,1,"801","preferring","false",0.444,1
"533",160,121,1,"756","Alicia","false",0.242,1
"534",160,122,1,"673","trait","false",-0.13,1
"535",160,125,1,"801","axles","false",0.444,1
"536",160,132,1,"869","diagnose","false",0.75,1
"537",160,133,1,"921","smorgasbord","false",0.983,1
"538",160,135,1,"682","trite","false",-0.09,1
"539",160,136,1,"691","grins","false",-0.049,1
"540",160,138,1,"585","moreover","false",-0.525,1
"541",160,140,1,"770","hundredth","false",0.305,1
"542",160,141,1,"691","dispersion","false",-0.049,1
"543",160,145,1,"1,016","anything","false",1.409,1
"544",160,148,1,"1,068","overcompensate","false",1.643,1
"545",160,150,1,"770","stomping","false",0.305,1
"546",160,151,1,"672","ode","false",-0.135,1
"547",160,152,1,"628","salty","false",-0.332,1
"548",160,153,1,"595","drunken","false",-0.48,1
"549",160,154,1,"542","cheerio","false",-0.718,1
"550",160,156,1,"764","silhouettes","false",0.278,1
"551",160,157,1,"794","reticence","false",0.413,1
"552",160,158,1,"735","flora","false",0.148,1
"553",160,161,1,"777","impeccably","false",0.337,1
"554",160,163,1,"638","worldly","false",-0.287,1
"555",160,164,1,"787","conservative","false",0.382,1
"556",160,165,1,"635","homemaker","false",-0.301,1
"557",160,174,1,"901","loveliest","false",0.893,1
"558",160,175,1,"732","advertisers","false",0.135,1
"559",160,180,1,"1,168","melancholy","false",2.092,1
"560",160,181,1,"623","daunted","false",-0.355,1
"561",160,182,1,"622","tepees","false",-0.359,1
"562",160,185,1,"832","production","false",0.584,1
"563",160,188,1,"832","thrilled","false",0.584,1
"564",160,189,1,"1,293","insomniacs","false",2.653,1
"565",160,193,1,"766","carpetbagger","false",0.287,1
"566",160,195,1,"877","degenerated","false",0.786,1
"567",160,196,1,"860","edge","false",0.709,1
"568",160,202,1,"828","plundering","false",0.566,1
"569",160,206,1,"1,111","romanticizing","false",1.836,1
"570",160,207,1,"703","taped","false",0.004,1
"571",160,209,1,"807","coalface","false",0.471,1
"572",160,210,1,"671","kettledrum","false",-0.139,1
"573",160,211,1,"835","pillage","false",0.597,1
"574",160,212,1,"782","colonist","false",0.359,1
"575",160,214,1,"974","boathouse","false",1.221,1
"576",160,216,1,"852","cumulate","false",0.673,1
"577",160,219,1,"871","Goth","false",0.759,1
"578",160,220,1,"700","established","false",-0.009,1
"579",160,222,1,"758","duodenum","false",0.251,1
"580",160,223,1,"811","astronaut","false",0.489,1
"581",160,225,1,"773","clang","false",0.319,1
"582",160,226,1,"762","paradigms","false",0.269,1
"583",160,227,1,"513","olive","false",-0.848,1
"584",160,228,1,"807","precocious","false",0.471,1
"585",160,229,1,"673","intellectual","false",-0.13,1
"586",160,235,1,"586","sin","false",-0.521,1
"587",160,236,1,"1,296","photorealism","false",2.666,1
"588",160,237,1,"621","maneuvering","false",-0.364,1
"589",160,238,1,"633","technology","false",-0.31,1
"590",160,242,1,"757","conceptual","false",0.247,1
"591",160,243,1,"911","unexpected","false",0.938,1
"592",160,244,1,"687","squad","false",-0.067,1
"593",160,245,1,"950","vexes","false",1.113,1
"594",160,246,1,"1,707","sanguineous","false",4.511,1
"595",160,247,1,"776","conspirator","false",0.332,1
"596",160,248,1,"736","feasibility","false",0.153,1
"597",160,249,1,"541","juggle","false",-0.723,1
"598",160,252,1,"751","infatuate","false",0.22,1
"599",160,253,1,"702","bootlegging","false",0,1
"600",160,255,1,"745","mountainous","false",0.193,1
"601",160,257,1,"784","overstep","false",0.368,1
"602",160,259,1,"792","minibus","false",0.404,1
"603",160,260,1,"723","slum","false",0.094,1
"604",160,262,1,"555","rip","false",-0.66,1
"605",160,264,1,"615","isolate","false",-0.391,1
"606",160,265,1,"899","among","false",0.884,1
"607",160,268,1,"576","turnpikes","false",-0.566,1
"608",160,271,1,"620","raw","false",-0.368,1
"609",160,272,1,"662","underclothing","false",-0.18,1
"610",160,275,1,"760","humbug","false",0.26,1
"611",160,276,1,"630","comet","false",-0.323,1
"612",160,280,1,"609","exhorting","false",-0.417,1
"613",160,281,1,"1,109","litigant","false",1.827,1
"614",160,282,1,"798","kleptomania","false",0.431,1
"615",160,283,1,"721","modestly","false",0.085,1
"616",160,284,1,"534","forgery","false",-0.754,1
"617",160,285,1,"462","windup","false",-1.077,1
"618",160,286,1,"447","pushing","false",-1.145,1
"619",160,287,1,"442","grower","false",-1.167,1
"620",160,289,1,"710","ruthlessness","false",0.036,1
"621",160,290,1,"561","shed","false",-0.633,1
"622",160,291,1,"685","buoy","false",-0.076,1
"623",160,292,1,"467","math","false",-1.055,1
"624",160,293,1,"575","holster","false",-0.57,1
"625",160,294,1,"770","scruff","false",0.305,1
"626",160,296,1,"696","proven","false",-0.027,1
"627",160,299,1,"667","dictation","false",-0.157,1
"628",160,300,1,"493","relieving","false",-0.938,1
"629",160,302,1,"756","dosages","false",0.242,1
"630",160,304,1,"975","befoul","false",1.225,1
"631",160,306,1,"714","froth","false",0.054,1
"632",160,307,1,"740","ghostlike","false",0.171,1
"633",160,308,1,"577","truant","false",-0.561,1
"634",160,309,1,"603","transporter","false",-0.444,1
"635",160,315,1,"835","fluctuates","false",0.597,1
"636",160,316,1,"614","misbranded","false",-0.395,1
"637",160,319,1,"913","piddling","false",0.947,1
"638",160,320,1,"516","seasons","false",-0.835,1
"639",160,322,1,"751","leeway","false",0.22,1
"640",160,323,1,"769","attainable","false",0.301,1
"641",160,326,1,"641","vacate","false",-0.274,1
"642",160,327,1,"713","trafficker","false",0.049,1
"643",160,328,1,"669","aching","false",-0.148,1
"644",160,330,1,"938","resonances","false",1.059,1
"645",160,332,1,"516","enjoys","false",-0.835,1
"646",160,334,1,"745","inhabitant","false",0.193,1
"647",160,335,1,"645","convolute","false",-0.256,1
"648",160,339,1,"574","firewood","false",-0.575,1
"649",160,340,1,"864","mayoral","false",0.727,1
"650",160,341,1,"1,021","longbow","false",1.432,1
"651",160,342,1,"1,227","nonunion","false",2.357,1
"652",160,343,1,"630","gladiator","false",-0.323,1
"653",160,346,1,"549","shaft","false",-0.687,1
"654",160,348,1,"723","reflective","false",0.094,1
"655",160,349,1,"609","moonlike","false",-0.417,1
"656",160,350,1,"659","inconsistency","false",-0.193,1
"657",160,351,1,"557","sites","false",-0.651,1
"658",160,353,1,"662","recommending","false",-0.18,1
"659",160,355,1,"834","blowgun","false",0.592,1
"660",160,356,1,"1,290","doubt","false",2.639,1
"661",160,357,1,"882","rub","false",0.808,1
"662",160,359,1,"1,029","emollient","false",1.468,1
"663",160,360,1,"544","projection","false",-0.709,1
"664",160,361,1,"569","bounty","false",-0.597,1
"665",160,363,1,"560","grapes","false",-0.637,1
"666",160,365,1,"614","upgrading","false",-0.395,1
"667",160,367,1,"871","gangland","false",0.759,1
"668",160,370,1,"823","kaboom","false",0.543,1
"669",160,372,1,"968","marketable","false",1.194,1
"670",160,374,1,"605","visitor","false",-0.435,1
"671",160,376,1,"929","frugally","false",1.019,1
"672",160,377,1,"866","invisible","false",0.736,1
"673",160,379,1,"648","biscuit","false",-0.242,1
"674",160,381,1,"1,642","guardedness","false",4.219,1
"675",160,386,1,"605","sterilize","false",-0.435,1
"676",160,387,1,"726","curate","false",0.108,1
"677",160,390,1,"567","passed","false",-0.606,1
"678",160,391,1,"518","stroking","false",-0.826,1
"679",160,394,1,"769","fleabag","false",0.301,1
"680",160,396,1,"642","tempest","false",-0.269,1
"681",160,399,1,"751","deductible","false",0.22,1
"682",160,404,1,"867","exhibitionism","false",0.741,1
"683",160,405,1,"783","overhead","false",0.364,1
"684",160,406,1,"888","erred","false",0.835,1
"685",160,408,1,"645","presenting","false",-0.256,1
"686",160,409,1,"1,472","rattan","false",3.456,1
"687",160,410,1,"715","anaerobic","false",0.058,1
"688",160,413,1,"571","broomstick","false",-0.588,1
"689",160,415,1,"753","organismic","false",0.229,1
"690",160,416,1,"752","tyrants","false",0.224,1
"691",160,418,1,"612","closeup","false",-0.404,1
"692",160,419,1,"527","bagged","false",-0.786,1
"693",160,421,1,"711","connote","false",0.04,1
"694",160,424,1,"521","destined","false",-0.812,1
"695",160,426,1,"556","crusades","false",-0.655,1
"696",160,427,1,"749","shouldered","false",0.211,1
"697",160,429,1,"569","tidy","false",-0.597,1
"698",160,430,1,"711","vagina","false",0.04,1
"699",160,432,1,"1,057","maximums","false",1.593,1
"700",160,434,1,"743","handclasp","false",0.184,1
"701",160,437,1,"833","cymbal","false",0.588,1
"702",160,439,1,"886","absurdly","false",0.826,1
"703",160,442,1,"1,140","northeaster","false",1.966,1
"704",160,444,1,"933","speculators","false",1.037,1
"705",160,447,1,"663","sprays","false",-0.175,1
"706",160,448,1,"780","Budapest","false",0.35,1
"707",160,450,1,"694","sedimentation","false",-0.036,1
"708",160,452,1,"636","toothache","false",-0.296,1
"709",160,454,1,"764","cajole","false",0.278,1
"710",160,456,1,"897","warrant","false",0.875,1
"711",160,457,1,"752","resided","false",0.224,1
"712",160,458,1,"662","grinders","false",-0.18,1
"713",160,459,1,"645","stead","false",-0.256,1
"714",160,465,1,"836","communion","false",0.601,1
"715",160,468,1,"816","lackey","false",0.512,1
"716",160,473,1,"698","lobbies","false",-0.018,1
"717",160,475,1,"626","continues","false",-0.341,1
"718",160,476,1,"720","Sundays","false",0.081,1
"719",160,479,1,"544","plenty","false",-0.709,1
"720",160,482,1,"618","swimmer","false",-0.377,1
"721",160,485,1,"740","Brandon","false",0.171,1
"722",160,488,1,"780","semicolon","false",0.35,1
"723",160,489,1,"681","disallowed","false",-0.094,1
"724",160,491,1,"719","huge","false",0.076,1
"725",160,493,1,"858","elevator","false",0.7,1
"726",160,495,1,"635","pearl","false",-0.301,1
"727",160,499,1,"701","relying","false",-0.004,1
"728",161,3,1,"474","pins","false",-1.103,1
"729",161,5,1,"576","tedious","false",-0.736,1
"730",161,6,1,"1,366","penitent","false",2.102,1
"731",161,8,1,"642","exchanges","false",-0.499,1
"732",161,11,1,"652","stall","false",-0.463,1
"733",161,12,1,"968","seamstress","false",0.672,1
"734",161,15,1,"940","consultation","false",0.571,1
"735",161,17,1,"1,853","irreplaceable","false",3.851,1
"736",161,19,1,"998","daredevil","false",0.78,1
"737",161,21,1,"672","exude","false",-0.392,1
"738",161,29,1,"675","mister","false",-0.381,1
"739",161,32,1,"536","blacks","false",-0.88,1
"740",161,34,1,"1,031","college's","false",0.898,1
"741",161,36,1,"1,453","beside","false",2.414,1
"742",161,37,1,"669","warehouses","false",-0.402,1
"743",161,40,1,"822","caddie","false",0.147,1
"744",161,43,1,"570","ash","false",-0.758,1
"745",161,48,1,"694","Eskimos","false",-0.313,1
"746",161,49,1,"690","tagged","false",-0.327,1
"747",161,51,1,"585","whale","false",-0.704,1
"748",161,52,1,"567","infest","false",-0.769,1
"749",161,54,1,"657","passage","false",-0.445,1
"750",161,56,1,"537","knee","false",-0.877,1
"751",161,57,1,"3,345","extravaganzas","false",9.211,1
"752",161,61,1,"620","bookshelf","false",-0.578,1
"753",161,64,1,"1,432","pressurization","false",2.339,1
"754",161,66,1,"628","toys","false",-0.55,1
"755",161,67,1,"634","pollution","false",-0.528,1
"756",161,68,1,"572","soundness","false",-0.751,1
"757",161,69,1,"519","first","false",-0.941,1
"758",161,70,1,"503","crashed","false",-0.999,1
"759",161,72,1,"1,170","sulky","false",1.397,1
"760",161,74,1,"2,088","hearers","false",4.695,1
"761",161,75,1,"484","culture","false",-1.067,1
"762",161,77,1,"492","leaning","false",-1.038,1
"763",161,79,1,"993","diatribe","false",0.762,1
"764",161,80,1,"904","journalists","false",0.442,1
"765",161,81,1,"917","typographic","false",0.489,1
"766",161,90,1,"610","appears","false",-0.614,1
"767",161,96,1,"691","organic","false",-0.323,1
"768",161,97,1,"528","edges","false",-0.909,1
"769",161,98,1,"677","untapped","false",-0.374,1
"770",161,101,1,"673","rhythmic","false",-0.388,1
"771",161,104,1,"1,103","vasectomy","false",1.157,1
"772",161,105,1,"614","luxuries","false",-0.6,1
"773",161,109,1,"835","continually","false",0.194,1
"774",161,111,1,"820","eminent","false",0.14,1
"775",161,112,1,"753","flotation","false",-0.101,1
"776",161,117,1,"555","refute","false",-0.812,1
"777",161,121,1,"520","smoke","false",-0.938,1
"778",161,122,1,"882","uniqueness","false",0.363,1
"779",161,124,1,"1,242","conservatism","false",1.656,1
"780",161,125,1,"951","logarithm","false",0.611,1
"781",161,126,1,"906","pretrial","false",0.449,1
"782",161,130,1,"499","plants","false",-1.013,1
"783",161,131,1,"559","distract","false",-0.798,1
"784",161,134,1,"711","hysteric","false",-0.251,1
"785",161,135,1,"601","fragments","false",-0.647,1
"786",161,137,1,"870","fastener","false",0.32,1
"787",161,138,1,"725","bootless","false",-0.201,1
"788",161,142,1,"532","pillows","false",-0.895,1
"789",161,143,1,"607","refrigerator","false",-0.625,1
"790",161,151,1,"579","strays","false",-0.726,1
"791",161,152,1,"605","quack","false",-0.632,1
"792",161,153,1,"667","needlessly","false",-0.41,1
"793",161,154,1,"733","uncommitted","false",-0.172,1
"794",161,160,1,"774","teams","false",-0.025,1
"795",161,161,1,"755","airy","false",-0.093,1
"796",161,162,1,"1,058","slung","false",0.995,1
"797",161,163,1,"1,116","denominational","false",1.203,1
"798",161,164,1,"641","glossary","false",-0.503,1
"799",161,172,1,"558","Oxford","false",-0.801,1
"800",161,174,1,"716","Portland's","false",-0.234,1
"801",161,176,1,"610","Ontario","false",-0.614,1
"802",161,177,1,"665","suffering","false",-0.417,1
"803",161,178,1,"729","bluejay","false",-0.187,1
"804",161,179,1,"656","shouldn't","false",-0.449,1
"805",161,181,1,"956","magnetize","false",0.629,1
"806",161,182,1,"662","bearskin","false",-0.428,1
"807",161,185,1,"485","walnuts","false",-1.063,1
"808",161,186,1,"636","forebears","false",-0.521,1
"809",161,189,1,"503","rusty","false",-0.999,1
"810",161,190,1,"567","where'd","false",-0.769,1
"811",161,193,1,"842","Jamestown","false",0.219,1
"812",161,194,1,"787","cyanide","false",0.022,1
"813",161,198,1,"603","furs","false",-0.639,1
"814",161,199,1,"494","month","false",-1.031,1
"815",161,200,1,"674","mechanized","false",-0.384,1
"816",161,201,1,"573","outlet","false",-0.747,1
"817",161,202,1,"498","happened","false",-1.017,1
"818",161,203,1,"575","riddles","false",-0.74,1
"819",161,204,1,"641","impresses","false",-0.503,1
"820",161,206,1,"527","sky's","false",-0.913,1
"821",161,207,1,"759","statehouse","false",-0.079,1
"822",161,208,1,"692","cobweb","false",-0.32,1
"823",161,209,1,"1,590","nondescriptly","false",2.906,1
"824",161,210,1,"480","intruders","false",-1.081,1
"825",161,211,1,"772","sorbet","false",-0.032,1
"826",161,213,1,"1,618","resplendent","false",3.007,1
"827",161,216,1,"999","enchained","false",0.783,1
"828",161,217,1,"1,173","scuffmark","false",1.408,1
"829",161,218,1,"506","expel","false",-0.988,1
"830",161,219,1,"499","range","false",-1.013,1
"831",161,222,1,"1,005","hemorrhage","false",0.805,1
"832",161,223,1,"752","hothouse","false",-0.104,1
"833",161,224,1,"604","voiced","false",-0.636,1
"834",161,225,1,"785","vetoed","false",0.014,1
"835",161,229,1,"902","fuzzed","false",0.435,1
"836",161,231,1,"567","decline","false",-0.769,1
"837",161,239,1,"736","helm","false",-0.162,1
"838",161,241,1,"677","petty","false",-0.374,1
"839",161,242,1,"878","gynecologists","false",0.348,1
"840",161,243,1,"615","modulation","false",-0.596,1
"841",161,244,1,"940","bantam","false",0.571,1
"842",161,247,1,"715","occurrences","false",-0.237,1
"843",161,248,1,"1,087","matchwood","false",1.099,1
"844",161,249,1,"588","chandeliers","false",-0.693,1
"845",161,251,1,"1,104","threes","false",1.16,1
"846",161,253,1,"758","sewers","false",-0.083,1
"847",161,255,1,"452","being","false",-1.182,1
"848",161,256,1,"679","uneasy","false",-0.366,1
"849",161,260,1,"588","weak","false",-0.693,1
"850",161,264,1,"509","expired","false",-0.977,1
"851",161,270,1,"429","flash","false",-1.265,1
"852",161,272,1,"698","adrenal","false",-0.298,1
"853",161,273,1,"509","projects","false",-0.977,1
"854",161,274,1,"1,490","supervises","false",2.547,1
"855",161,276,1,"736","jeweled","false",-0.162,1
"856",161,277,1,"982","Tex","false",0.722,1
"857",161,279,1,"515","pubs","false",-0.956,1
"858",161,280,1,"564","disliked","false",-0.78,1
"859",161,281,1,"574","Wilson","false",-0.744,1
"860",161,285,1,"488","Alfred's","false",-1.053,1
"861",161,291,1,"969","inhumanities","false",0.675,1
"862",161,292,1,"542","vending","false",-0.859,1
"863",161,294,1,"404","miles","false",-1.354,1
"864",161,295,1,"670","pretending","false",-0.399,1
"865",161,297,1,"934","wonderingly","false",0.55,1
"866",161,302,1,"631","skilfully","false",-0.539,1
"867",161,308,1,"739","councilwoman","false",-0.151,1
"868",161,310,1,"578","undying","false",-0.729,1
"869",161,314,1,"1,029","soldering","false",0.891,1
"870",161,315,1,"1,027","implemented","false",0.884,1
"871",161,316,1,"743","hoard","false",-0.137,1
"872",161,317,1,"752","keenly","false",-0.104,1
"873",161,319,1,"749","tow","false",-0.115,1
"874",161,321,1,"484","time's","false",-1.067,1
"875",161,326,1,"510","imports","false",-0.974,1
"876",161,327,1,"650","FALSE","false",-0.471,1
"877",161,333,1,"643","parodies","false",-0.496,1
"878",161,335,1,"588","Roger","false",-0.693,1
"879",161,336,1,"612","missile's","false",-0.607,1
"880",161,338,1,"1,086","stigmata","false",1.096,1
"881",161,339,1,"500","duet","false",-1.009,1
"882",161,340,1,"620","snickered","false",-0.578,1
"883",161,342,1,"626","dietary","false",-0.557,1
"884",161,345,1,"781","fulfilling","false",0,1
"885",161,347,1,"807","heartfelt","false",0.093,1
"886",161,349,1,"666","spoiled","false",-0.413,1
"887",161,351,1,"627","songful","false",-0.553,1
"888",161,352,1,"1,044","foghorn","false",0.945,1
"889",161,356,1,"593","doorknob","false",-0.675,1
"890",161,361,1,"560","rebuilt","false",-0.794,1
"891",161,362,1,"474","blunts","false",-1.103,1
"892",161,366,1,"527","leavings","false",-0.913,1
"893",161,367,1,"538","registering","false",-0.873,1
"894",161,370,1,"509","day","false",-0.977,1
"895",161,373,1,"577","York's","false",-0.733,1
"896",161,380,1,"588","scornful","false",-0.693,1
"897",161,381,1,"937","kaiser","false",0.56,1
"898",161,382,1,"1,281","congruous","false",1.796,1
"899",161,384,1,"952","Michelangelo's","false",0.614,1
"900",161,385,1,"1,292","neoliberal","false",1.836,1
"901",161,390,1,"565","Israel's","false",-0.776,1
"902",161,391,1,"498","sheen","false",-1.017,1
"903",161,393,1,"527","anthropology","false",-0.913,1
"904",161,395,1,"812","availabilities","false",0.111,1
"905",161,399,1,"609","civility","false",-0.618,1
"906",161,401,1,"1,019","radiography","false",0.855,1
"907",161,402,1,"639","quantity","false",-0.51,1
"908",161,405,1,"916","stupidly","false",0.485,1
"909",161,408,1,"677","therapists","false",-0.374,1
"910",161,409,1,"950","ceramic","false",0.607,1
"911",161,411,1,"932","stoked","false",0.542,1
"912",161,412,1,"1,009","gentiles","false",0.819,1
"913",161,413,1,"583","particularity","false",-0.711,1
"914",161,417,1,"556","employee's","false",-0.808,1
"915",161,423,1,"636","businessmen","false",-0.521,1
"916",161,428,1,"909","rifleman's","false",0.46,1
"917",161,431,1,"619","digress","false",-0.582,1
"918",161,434,1,"740","cascaded","false",-0.147,1
"919",161,435,1,"751","felon","false",-0.108,1
"920",161,436,1,"1,004","Ethiopians","false",0.801,1
"921",161,437,1,"1,046","glisten","false",0.952,1
"922",161,438,1,"526","commands","false",-0.916,1
"923",161,439,1,"546","sideways","false",-0.844,1
"924",161,440,1,"698","lithe","false",-0.298,1
"925",161,444,1,"1,348","ornithology","false",2.037,1
"926",161,445,1,"643","fractionated","false",-0.496,1
"927",161,446,1,"467","desired","false",-1.128,1
"928",161,447,1,"501","nostrils","false",-1.006,1
"929",161,449,1,"775","lessening","false",-0.022,1
"930",161,453,1,"925","memoirs","false",0.517,1
"931",161,455,1,"673","bimonthly","false",-0.388,1
"932",161,456,1,"592","inventory","false",-0.679,1
"933",161,459,1,"1,472","concertmaster","false",2.482,1
"934",161,460,1,"1,428","convolution","false",2.324,1
"935",161,461,1,"1,425","reprovingly","false",2.314,1
"936",161,462,1,"645","remove","false",-0.489,1
"937",161,465,1,"722","telescopes","false",-0.212,1
"938",161,468,1,"721","tubing","false",-0.216,1
"939",161,469,1,"554","coconut","false",-0.816,1
"940",161,471,1,"789","classed","false",0.029,1
"941",161,472,1,"528","doctor","false",-0.909,1
"942",161,473,1,"593","lull","false",-0.675,1
"943",161,481,1,"1,285","sassafras","false",1.811,1
"944",161,482,1,"689","armchair","false",-0.331,1
"945",161,483,1,"907","accounts","false",0.453,1
"946",161,486,1,"740","stabs","false",-0.147,1
"947",161,488,1,"772","perfunctory","false",-0.032,1
"948",161,490,1,"814","uncertainties","false",0.119,1
"949",161,493,1,"603","powerless","false",-0.639,1
"950",161,494,1,"463","favoring","false",-1.142,1
"951",161,495,1,"773","screenplay","false",-0.029,1
"952",162,2,1,"699","nostril","false",-0.389,1
"953",162,3,1,"1,117","pal's","false",0.965,1
"954",162,7,1,"645","Joyce","false",-0.564,1
"955",162,8,1,"653","shouting","false",-0.538,1
"956",162,10,1,"576","arcade","false",-0.787,1
"957",162,12,1,"721","bankroll","false",-0.317,1
"958",162,15,1,"688","coastline","false",-0.424,1
"959",162,17,1,"832","catalytic","false",0.042,1
"960",162,18,1,"916","radioactivity","false",0.314,1
"961",162,20,1,"1,085","sixties","false",0.862,1
"962",162,21,1,"990","subscribed","false",0.554,1
"963",162,25,1,"1,416","experimentations","false",1.934,1
"964",162,28,1,"769","chafing","false",-0.162,1
"965",162,32,1,"660","legally","false",-0.515,1
"966",162,34,1,"727","reserved","false",-0.298,1
"967",162,36,1,"868","retracted","false",0.159,1
"968",162,37,1,"575","Amen","false",-0.79,1
"969",162,39,1,"637","prostrate","false",-0.589,1
"970",162,41,1,"1,085","sloping","false",0.862,1
"971",162,43,1,"656","any","false",-0.528,1
"972",162,44,1,"1,834","wholemeal","false",3.288,1
"973",162,45,1,"1,260","tomorrow's","false",1.428,1
"974",162,47,1,"1,365","syntactical","false",1.768,1
"975",162,48,1,"801","photographers","false",-0.058,1
"976",162,49,1,"1,681","eventfully","false",2.792,1
"977",162,50,1,"750","roamed","false",-0.223,1
"978",162,55,1,"609","zooming","false",-0.68,1
"979",162,56,1,"656","bluejacket","false",-0.528,1
"980",162,59,1,"603","Hebrew","false",-0.7,1
"981",162,66,1,"1,101","iamb","false",0.913,1
"982",162,68,1,"923","broncs","false",0.337,1
"983",162,69,1,"1,534","sclerosis","false",2.316,1
"984",162,72,1,"573","mule","false",-0.797,1
"985",162,75,1,"724","seemly","false",-0.308,1
"986",162,76,1,"952","umbilical","false",0.431,1
"987",162,78,1,"982","agriculture","false",0.528,1
"988",162,79,1,"1,403","advantageous","false",1.892,1
"989",162,80,1,"801","publishers","false",-0.058,1
"990",162,81,1,"915","competitively","false",0.311,1
"991",162,83,1,"846","flyaway","false",0.087,1
"992",162,85,1,"797","crouton","false",-0.071,1
"993",162,87,1,"813","micron","false",-0.019,1
"994",162,91,1,"708","permitting","false",-0.36,1
"995",162,93,1,"534","grown","false",-0.923,1
"996",162,94,1,"1,140","paneling","false",1.04,1
"997",162,95,1,"702","glimmering","false",-0.379,1
"998",162,96,1,"551","may","false",-0.868,1
"999",162,97,1,"600","asylum","false",-0.709,1
"1000",162,100,1,"675","navigable","false",-0.466,1
"1001",162,101,1,"618","loners","false",-0.651,1
"1002",162,102,1,"666","cannery","false",-0.496,1
"1003",162,105,1,"728","endearments","false",-0.295,1
"1004",162,106,1,"996","damsel","false",0.573,1
"1005",162,107,1,"1,327","satinwood","false",1.645,1
"1006",162,109,1,"812","backstroke","false",-0.023,1
"1007",162,110,1,"1,289","correspondents","false",1.522,1
"1008",162,112,1,"1,138","Dexedrine","false",1.033,1
"1009",162,113,1,"1,168","amusedly","false",1.13,1
"1010",162,114,1,"611","polarized","false",-0.674,1
"1011",162,115,1,"1,323","girl","false",1.632,1
"1012",162,116,1,"803","bedbug","false",-0.052,1
"1013",162,118,1,"1,453","impartation","false",2.054,1
"1014",162,119,1,"1,228","intrusions","false",1.325,1
"1015",162,121,1,"569","deaf","false",-0.81,1
"1016",162,122,1,"642","brat","false",-0.573,1
"1017",162,123,1,"556","infants","false",-0.852,1
"1018",162,125,1,"2,195","gardenias","false",4.457,1
"1019",162,128,1,"747","haystack","false",-0.233,1
"1020",162,130,1,"1,271","finder","false",1.464,1
"1021",162,133,1,"708","applauded","false",-0.36,1
"1022",162,134,1,"1,171","attired","false",1.14,1
"1023",162,135,1,"769","nuthouse","false",-0.162,1
"1024",162,136,1,"1,091","nonentity","false",0.881,1
"1025",162,139,1,"793","reverses","false",-0.084,1
"1026",162,141,1,"693","truce","false",-0.408,1
"1027",162,143,1,"672","seldom","false",-0.476,1
"1028",162,144,1,"650","alkaline","false",-0.547,1
"1029",162,146,1,"1,158","aerate","false",1.098,1
"1030",162,147,1,"570","carousel","false",-0.807,1
"1031",162,148,1,"1,180","grandad","false",1.169,1
"1032",162,151,1,"724","volition","false",-0.308,1
"1033",162,154,1,"593","urbanism","false",-0.732,1
"1034",162,156,1,"705","parcels","false",-0.369,1
"1035",162,160,1,"598","pupils","false",-0.716,1
"1036",162,162,1,"654","lawmakers","false",-0.534,1
"1037",162,164,1,"533","sharks","false",-0.926,1
"1038",162,167,1,"826","mannered","false",0.023,1
"1039",162,168,1,"588","cooling","false",-0.748,1
"1040",162,169,1,"494","pedals","false",-1.053,1
"1041",162,175,1,"687","Doric","false",-0.428,1
"1042",162,176,1,"553","swelling","false",-0.862,1
"1043",162,178,1,"564","frequency","false",-0.826,1
"1044",162,183,1,"620","Thomson","false",-0.645,1
"1045",162,192,1,"652","slim","false",-0.541,1
"1046",162,196,1,"724","irons","false",-0.308,1
"1047",162,198,1,"574","myths","false",-0.794,1
"1048",162,199,1,"1,475","assailant","false",2.125,1
"1049",162,201,1,"676","dejected","false",-0.463,1
"1050",162,203,1,"677","blinders","false",-0.46,1
"1051",162,208,1,"1,386","determinants","false",1.837,1
"1052",162,210,1,"749","invasion","false",-0.227,1
"1053",162,211,1,"721","deducible","false",-0.317,1
"1054",162,212,1,"799","Grecian","false",-0.065,1
"1055",162,216,1,"779","hostility","false",-0.13,1
"1056",162,217,1,"957","fumigation","false",0.447,1
"1057",162,220,1,"1,958","redoubt","false",3.689,1
"1058",162,223,1,"740","outport","false",-0.256,1
"1059",162,225,1,"635","arch","false",-0.596,1
"1060",162,226,1,"663","Keith","false",-0.505,1
"1061",162,228,1,"574","veracity","false",-0.794,1
"1062",162,229,1,"604","undulate","false",-0.696,1
"1063",162,230,1,"469","shut","false",-1.134,1
"1064",162,234,1,"1,009","chromosome","false",0.615,1
"1065",162,238,1,"671","whimper","false",-0.479,1
"1066",162,239,1,"992","supernaturalism","false",0.56,1
"1067",162,241,1,"1,532","community","false",2.309,1
"1068",162,247,1,"712","Eurasian","false",-0.347,1
"1069",162,250,1,"558","lords","false",-0.845,1
"1070",162,251,1,"713","black","false",-0.343,1
"1071",162,253,1,"761","solemnity","false",-0.188,1
"1072",162,256,1,"694","sewing","false",-0.405,1
"1073",162,259,1,"1,493","titillate","false",2.183,1
"1074",162,261,1,"1,219","unsympathetic","false",1.296,1
"1075",162,264,1,"615","elders","false",-0.661,1
"1076",162,266,1,"1,234","tenable","false",1.344,1
"1077",162,268,1,"689","glassware","false",-0.421,1
"1078",162,269,1,"1,548","legislators","false",2.361,1
"1079",162,271,1,"1,551","sleeveless","false",2.371,1
"1080",162,273,1,"708","burner","false",-0.36,1
"1081",162,274,1,"644","duplex","false",-0.567,1
"1082",162,279,1,"911","disengage","false",0.298,1
"1083",162,282,1,"1,322","aloneness","false",1.629,1
"1084",162,283,1,"771","Sally","false",-0.155,1
"1085",162,287,1,"688","pickoff","false",-0.424,1
"1086",162,288,1,"556","dredge","false",-0.852,1
"1087",162,289,1,"1,466","dipswitch","false",2.096,1
"1088",162,290,1,"1,172","extenuation","false",1.143,1
"1089",162,291,1,"656","Brussels","false",-0.528,1
"1090",162,293,1,"909","relating","false",0.292,1
"1091",162,296,1,"1,256","indefensible","false",1.415,1
"1092",162,297,1,"984","engendered","false",0.534,1
"1093",162,298,1,"545","confusing","false",-0.887,1
"1094",162,299,1,"754","maliciously","false",-0.211,1
"1095",162,303,1,"704","negation","false",-0.372,1
"1096",162,304,1,"871","Jess's","false",0.168,1
"1097",162,306,1,"676","operate","false",-0.463,1
"1098",162,307,1,"869","herbivore","false",0.162,1
"1099",162,310,1,"673","subjectively","false",-0.473,1
"1100",162,313,1,"942","sparkler","false",0.398,1
"1101",162,314,1,"1,212","interrogator","false",1.273,1
"1102",162,315,1,"859","Unitarianism","false",0.13,1
"1103",162,316,1,"886","calibrating","false",0.217,1
"1104",162,317,1,"561","Winston","false",-0.836,1
"1105",162,319,1,"630","fairway","false",-0.612,1
"1106",162,321,1,"670","typeface","false",-0.483,1
"1107",162,323,1,"934","hipline","false",0.372,1
"1108",162,325,1,"625","comedians","false",-0.628,1
"1109",162,326,1,"711","stoop","false",-0.35,1
"1110",162,327,1,"628","halves","false",-0.619,1
"1111",162,329,1,"716","expediency","false",-0.334,1
"1112",162,332,1,"609","preference","false",-0.68,1
"1113",162,333,1,"1,034","forgone","false",0.696,1
"1114",162,334,1,"677","emotional","false",-0.46,1
"1115",162,337,1,"732","bards","false",-0.282,1
"1116",162,338,1,"617","sinister","false",-0.654,1
"1117",162,339,1,"800","Medicare","false",-0.062,1
"1118",162,344,1,"506","tense","false",-1.014,1
"1119",162,345,1,"535","sunset","false",-0.92,1
"1120",162,346,1,"702","understand","false",-0.379,1
"1121",162,347,1,"709","regulatory","false",-0.356,1
"1122",162,349,1,"661","sandbars","false",-0.512,1
"1123",162,353,1,"782","keno","false",-0.12,1
"1124",162,354,1,"590","transcribe","false",-0.742,1
"1125",162,355,1,"610","shocks","false",-0.677,1
"1126",162,357,1,"552","booming","false",-0.865,1
"1127",162,360,1,"659","oversimplify","false",-0.518,1
"1128",162,362,1,"782","derisive","false",-0.12,1
"1129",162,363,1,"683","peruse","false",-0.441,1
"1130",162,364,1,"1,142","incomprehension","false",1.046,1
"1131",162,365,1,"484","acne","false",-1.085,1
"1132",162,366,1,"968","reproduces","false",0.483,1
"1133",162,367,1,"1,165","ripcord","false",1.121,1
"1134",162,370,1,"841","characters","false",0.071,1
"1135",162,373,1,"900","disintegrate","false",0.262,1
"1136",162,375,1,"666","epistle","false",-0.496,1
"1137",162,377,1,"875","reelected","false",0.181,1
"1138",162,381,1,"770","Eugene's","false",-0.159,1
"1139",162,384,1,"785","cogently","false",-0.11,1
"1140",162,389,1,"701","opposes","false",-0.382,1
"1141",162,390,1,"992","monorail","false",0.56,1
"1142",162,394,1,"826","guppy","false",0.023,1
"1143",162,397,1,"812","buoys","false",-0.023,1
"1144",162,400,1,"604","technique","false",-0.696,1
"1145",162,402,1,"563","coupled","false",-0.829,1
"1146",162,403,1,"559","conducting","false",-0.842,1
"1147",162,404,1,"697","dilating","false",-0.395,1
"1148",162,405,1,"676","Angelo's","false",-0.463,1
"1149",162,407,1,"665","Victoria","false",-0.499,1
"1150",162,408,1,"794","plowshares","false",-0.081,1
"1151",162,410,1,"609","inactive","false",-0.68,1
"1152",162,411,1,"669","glove","false",-0.486,1
"1153",162,412,1,"1,114","declarations","false",0.956,1
"1154",162,413,1,"554","brides","false",-0.858,1
"1155",162,414,1,"503","insider","false",-1.024,1
"1156",162,416,1,"657","Georgetown's","false",-0.525,1
"1157",162,420,1,"538","giant","false",-0.91,1
"1158",162,422,1,"869","espousing","false",0.162,1
"1159",162,425,1,"1,508","accelerator","false",2.232,1
"1160",162,426,1,"1,087","airdrop","false",0.868,1
"1161",162,427,1,"895","monuments","false",0.246,1
"1162",162,430,1,"891","rearrangement","false",0.233,1
"1163",162,431,1,"1,227","Bucharest","false",1.322,1
"1164",162,432,1,"709","thanked","false",-0.356,1
"1165",162,433,1,"827","clod","false",0.026,1
"1166",162,434,1,"691","rodent","false",-0.415,1
"1167",162,435,1,"568","necessity","false",-0.813,1
"1168",162,437,1,"663","boiler","false",-0.505,1
"1169",162,438,1,"780","forums","false",-0.126,1
"1170",162,441,1,"997","unflinching","false",0.577,1
"1171",162,442,1,"1,744","adirondacks","false",2.996,1
"1172",162,444,1,"525","turkey","false",-0.952,1
"1173",162,445,1,"904","obtaining","false",0.275,1
"1174",162,446,1,"1,024","intellectually","false",0.664,1
"1175",162,449,1,"577","postcards","false",-0.784,1
"1176",162,450,1,"1,070","disconcerting","false",0.813,1
"1177",162,451,1,"559","Irene","false",-0.842,1
"1178",162,453,1,"723","sacrilege","false",-0.311,1
"1179",162,455,1,"1,415","leveling","false",1.93,1
"1180",162,456,1,"789","revelry","false",-0.097,1
"1181",162,463,1,"612","depression","false",-0.67,1
"1182",162,464,1,"572","stepped","false",-0.8,1
"1183",162,465,1,"1,122","enmeshed","false",0.981,1
"1184",162,466,1,"605","fertility","false",-0.693,1
"1185",162,471,1,"645","supported","false",-0.564,1
"1186",162,472,1,"586","deference","false",-0.755,1
"1187",162,473,1,"660","meets","false",-0.515,1
"1188",162,480,1,"1,091","Senate's","false",0.881,1
"1189",162,484,1,"1,573","incorruptible","false",2.442,1
"1190",162,487,1,"606","omega","false",-0.69,1
"1191",162,489,1,"667","cosmology","false",-0.492,1
"1192",162,491,1,"569","attachment","false",-0.81,1
"1193",162,493,1,"560","whirlpool","false",-0.839,1
"1194",162,498,1,"657","dictators","false",-0.525,1
"1195",162,500,1,"555","Jennie's","false",-0.855,1
"1196",164,1,1,"834","Nassau's","false",-0.24,1
"1197",164,2,1,"739","swat","false",-0.525,1
"1198",164,3,1,"669","motivating","false",-0.735,1
"1199",164,5,1,"617","forming","false",-0.891,1
"1200",164,6,1,"526","visit","false",-1.164,1
"1201",164,8,1,"929","celebrant","false",0.045,1
"1202",164,9,1,"906","agitate","false",-0.024,1
"1203",164,19,1,"1,052","discerned","false",0.414,1
"1204",164,24,1,"792","playwriting","false",-0.366,1
"1205",164,25,1,"1,582","Audubon","false",2.005,1
"1206",164,26,1,"820","sprained","false",-0.282,1
"1207",164,27,1,"802","breakdown","false",-0.336,1
"1208",164,28,1,"1,317","puppyish","false",1.209,1
"1209",164,29,1,"685","lyre","false",-0.687,1
"1210",164,31,1,"1,089","aquarium","false",0.525,1
"1211",164,32,1,"1,033","entreaty","false",0.357,1
"1212",164,35,1,"592","taxes","false",-0.966,1
"1213",164,37,1,"1,340","supine","false",1.278,1
"1214",164,38,1,"457","meat","false",-1.371,1
"1215",164,39,1,"465","heap","false",-1.347,1
"1216",164,41,1,"695","outlined","false",-0.657,1
"1217",164,42,1,"674","corrupts","false",-0.72,1
"1218",164,43,1,"804","hints","false",-0.33,1
"1219",164,45,1,"986","rallying","false",0.216,1
"1220",164,47,1,"646","indexing","false",-0.804,1
"1221",164,48,1,"1,420","proportionally","false",1.518,1
"1222",164,56,1,"1,442","Connecticut","false",1.584,1
"1223",164,58,1,"640","sexed","false",-0.822,1
"1224",164,59,1,"1,360","deviations","false",1.338,1
"1225",164,60,1,"730","dual","false",-0.552,1
"1226",164,65,1,"911","slimed","false",-0.009,1
"1227",164,66,1,"948","complain","false",0.102,1
"1228",164,67,1,"612","junkie","false",-0.906,1
"1229",164,71,1,"611","upon","false",-0.909,1
"1230",164,75,1,"826","relentlessly","false",-0.264,1
"1231",164,77,1,"629","hateful","false",-0.855,1
"1232",164,78,1,"652","union's","false",-0.786,1
"1233",164,80,1,"759","Germanized","false",-0.465,1
"1234",164,83,1,"1,301","kindle","false",1.161,1
"1235",164,85,1,"1,032","masquerading","false",0.354,1
"1236",164,87,1,"579","vantage","false",-1.005,1
"1237",164,89,1,"926","unrewarding","false",0.036,1
"1238",164,90,1,"646","irreverent","false",-0.804,1
"1239",164,91,1,"578","reponses","false",-1.008,1
"1240",164,92,1,"865","blared","false",-0.147,1
"1241",164,94,1,"747","gymnasium","false",-0.501,1
"1242",164,99,1,"504","stained","false",-1.23,1
"1243",164,105,1,"1,220","stockpile","false",0.918,1
"1244",164,108,1,"1,928","fondue","false",3.043,1
"1245",164,113,1,"805","deltas","false",-0.327,1
"1246",164,118,1,"930","tiara","false",0.048,1
"1247",164,119,1,"779","overbid","false",-0.405,1
"1248",164,120,1,"1,264","exasperatingly","false",1.05,1
"1249",164,123,1,"525","rare","false",-1.167,1
"1250",164,124,1,"598","anatomy","false",-0.948,1
"1251",164,127,1,"749","buckshot","false",-0.495,1
"1252",164,129,1,"663","oppress","false",-0.753,1
"1253",164,130,1,"1,017","tribune","false",0.309,1
"1254",164,133,1,"709","bakes","false",-0.615,1
"1255",164,135,1,"959","consummated","false",0.135,1
"1256",164,138,1,"530","earn","false",-1.152,1
"1257",164,140,1,"901","specification","false",-0.039,1
"1258",164,141,1,"1,119","sonnet","false",0.615,1
"1259",164,144,1,"991","westernization","false",0.231,1
"1260",164,148,1,"832","doctoral","false",-0.246,1
"1261",164,150,1,"1,706","disintegrating","false",2.377,1
"1262",164,159,1,"1,827","substantiates","false",2.74,1
"1263",164,160,1,"801","Christine","false",-0.339,1
"1264",164,164,1,"1,144","unamused","false",0.69,1
"1265",164,165,1,"647","cling","false",-0.801,1
"1266",164,169,1,"1,050","sandpiper","false",0.408,1
"1267",164,170,1,"1,217","mainstay","false",0.909,1
"1268",164,171,1,"425","wait","false",-1.467,1
"1269",164,178,1,"1,340","allegation","false",1.278,1
"1270",164,181,1,"718","blabbed","false",-0.588,1
"1271",164,182,1,"918","cables","false",0.012,1
"1272",164,186,1,"549","boxing","false",-1.095,1
"1273",164,188,1,"641","advisor","false",-0.819,1
"1274",164,190,1,"1,073","workbasket","false",0.477,1
"1275",164,192,1,"1,024","Atlantis","false",0.33,1
"1276",164,199,1,"1,115","determination","false",0.603,1
"1277",164,200,1,"720","deposited","false",-0.582,1
"1278",164,202,1,"853","trademarks","false",-0.183,1
"1279",164,203,1,"922","groin","false",0.024,1
"1280",164,212,1,"1,429","amputation","false",1.545,1
"1281",164,215,1,"1,222","outfielder","false",0.924,1
"1282",164,217,1,"812","stalwart","false",-0.306,1
"1283",164,218,1,"805","obliged","false",-0.327,1
"1284",164,219,1,"745","rudiment","false",-0.507,1
"1285",164,220,1,"1,175","dropsy","false",0.783,1
"1286",164,223,1,"534","shipping","false",-1.14,1
"1287",164,224,1,"810","reputation","false",-0.312,1
"1288",164,225,1,"930","floodgate","false",0.048,1
"1289",164,227,1,"644","chorus","false",-0.81,1
"1290",164,228,1,"1,084","immortalize","false",0.51,1
"1291",164,230,1,"881","whitens","false",-0.099,1
"1292",164,231,1,"714","conforms","false",-0.6,1
"1293",164,233,1,"566","efforts","false",-1.044,1
"1294",164,243,1,"1,032","accumulates","false",0.354,1
"1295",164,250,1,"737","Dan","false",-0.531,1
"1296",164,251,1,"541","tag","false",-1.119,1
"1297",164,253,1,"1,193","previsions","false",0.837,1
"1298",164,255,1,"528","tempting","false",-1.158,1
"1299",164,256,1,"657","inquirer","false",-0.771,1
"1300",164,260,1,"1,016","Canterbury","false",0.306,1
"1301",164,262,1,"501","deeds","false",-1.239,1
"1302",164,268,1,"621","chicks","false",-0.879,1
"1303",164,276,1,"625","remind","false",-0.867,1
"1304",164,277,1,"687","junctures","false",-0.681,1
"1305",164,278,1,"1,094","photoflash","false",0.54,1
"1306",164,279,1,"875","cognizant","false",-0.117,1
"1307",164,282,1,"712","prohibition","false",-0.606,1
"1308",164,284,1,"830","demure","false",-0.252,1
"1309",164,286,1,"861","antonym","false",-0.159,1
"1310",164,287,1,"605","wealth","false",-0.927,1
"1311",164,288,1,"590","feasts","false",-0.972,1
"1312",164,290,1,"929","surprisingly","false",0.045,1
"1313",164,291,1,"574","basin","false",-1.02,1
"1314",164,293,1,"1,616","rickshaw","false",2.107,1
"1315",164,308,1,"740","idealized","false",-0.522,1
"1316",164,310,1,"649","broadcast","false",-0.795,1
"1317",164,311,1,"705","Sawyer","false",-0.627,1
"1318",164,314,1,"697","muffins","false",-0.651,1
"1319",164,317,1,"1,459","scriptural","false",1.635,1
"1320",164,318,1,"1,045","foreclose","false",0.393,1
"1321",164,321,1,"1,600","administration","false",2.059,1
"1322",164,322,1,"1,004","buttermilk","false",0.27,1
"1323",164,323,1,"898","communicable","false",-0.048,1
"1324",164,329,1,"651","metric","false",-0.789,1
"1325",164,333,1,"1,630","percussionist","false",2.149,1
"1326",164,334,1,"1,242","sadomasochism","false",0.984,1
"1327",164,336,1,"818","arrests","false",-0.288,1
"1328",164,337,1,"1,503","gloriously","false",1.767,1
"1329",164,338,1,"1,059","matriculation","false",0.435,1
"1330",164,339,1,"711","astrology","false",-0.609,1
"1331",164,342,1,"711","lobes","false",-0.609,1
"1332",164,343,1,"1,099","cannibalize","false",0.555,1
"1333",164,346,1,"634","engraved","false",-0.84,1
"1334",164,347,1,"756","cutter","false",-0.474,1
"1335",164,348,1,"841","contractors","false",-0.219,1
"1336",164,352,1,"1,722","marlin's","false",2.425,1
"1337",164,354,1,"1,076","neuroses","false",0.486,1
"1338",164,355,1,"776","giggled","false",-0.414,1
"1339",164,358,1,"777","winced","false",-0.411,1
"1340",164,362,1,"668","rattle","false",-0.738,1
"1341",164,363,1,"1,072","mnemonic","false",0.474,1
"1342",164,364,1,"1,023","inane","false",0.327,1
"1343",164,365,1,"966","settee","false",0.156,1
"1344",164,369,1,"661","biology","false",-0.759,1
"1345",164,370,1,"1,202","stabilities","false",0.864,1
"1346",164,371,1,"1,069","retouching","false",0.465,1
"1347",164,373,1,"623","succumbing","false",-0.873,1
"1348",164,374,1,"968","precariously","false",0.162,1
"1349",164,375,1,"561","correspond","false",-1.059,1
"1350",164,376,1,"685","flatness","false",-0.687,1
"1351",164,377,1,"671","laminating","false",-0.729,1
"1352",164,380,1,"650","intensive","false",-0.792,1
"1353",164,381,1,"660","briskness","false",-0.762,1
"1354",164,383,1,"758","nettled","false",-0.468,1
"1355",164,385,1,"762","parks","false",-0.456,1
"1356",164,388,1,"699","sniffing","false",-0.645,1
"1357",164,389,1,"573","attempt","false",-1.023,1
"1358",164,392,1,"1,014","justifiably","false",0.3,1
"1359",164,393,1,"1,091","anonymous","false",0.531,1
"1360",164,396,1,"526","two","false",-1.164,1
"1361",164,397,1,"548","exhibit","false",-1.098,1
"1362",164,399,1,"1,372","rectitude","false",1.374,1
"1363",164,400,1,"830","underprivileged","false",-0.252,1
"1364",164,403,1,"897","implored","false",-0.051,1
"1365",164,404,1,"871","condonation","false",-0.129,1
"1366",164,408,1,"1,040","fatless","false",0.378,1
"1367",164,409,1,"882","maelstrom","false",-0.096,1
"1368",164,410,1,"1,157","leaseholder","false",0.729,1
"1369",164,412,1,"614","furnished","false",-0.9,1
"1370",164,413,1,"592","winking","false",-0.966,1
"1371",164,414,1,"1,482","radiocarbon","false",1.704,1
"1372",164,415,1,"1,146","harpy","false",0.696,1
"1373",164,417,1,"1,281","satirizes","false",1.101,1
"1374",164,418,1,"666","shuddering","false",-0.744,1
"1375",164,419,1,"816","captious","false",-0.294,1
"1376",164,421,1,"894","icefall","false",-0.06,1
"1377",164,422,1,"1,654","seismic","false",2.221,1
"1378",164,424,1,"693","pursed","false",-0.663,1
"1379",164,427,1,"1,110","disparate","false",0.588,1
"1380",164,428,1,"512","rescuer","false",-1.206,1
"1381",164,430,1,"777","eased","false",-0.411,1
"1382",164,431,1,"912","popularism","false",-0.006,1
"1383",164,434,1,"691","geometry","false",-0.669,1
"1384",164,436,1,"691","tubers","false",-0.669,1
"1385",164,437,1,"472","trees","false",-1.326,1
"1386",164,443,1,"722","freeways","false",-0.576,1
"1387",164,445,1,"1,028","forages","false",0.342,1
"1388",164,446,1,"855","iniquity","false",-0.177,1
"1389",164,447,1,"770","Rebecca","false",-0.432,1
"1390",164,448,1,"624","barrel","false",-0.87,1
"1391",164,454,1,"500","uses","false",-1.242,1
"1392",164,455,1,"748","deuce","false",-0.498,1
"1393",164,456,1,"692","coverings","false",-0.666,1
"1394",164,460,1,"648","spares","false",-0.798,1
"1395",164,466,1,"645","lowest","false",-0.807,1
"1396",164,467,1,"735","vibrato","false",-0.537,1
"1397",164,473,1,"884","equip","false",-0.09,1
"1398",164,480,1,"935","workman's","false",0.063,1
"1399",164,481,1,"829","synapses","false",-0.255,1
"1400",164,483,1,"1,011","congestion","false",0.291,1
"1401",164,486,1,"795","lounges","false",-0.357,1
"1402",164,489,1,"632","exuded","false",-0.846,1
"1403",164,492,1,"882","maneuvers","false",-0.096,1
"1404",164,493,1,"1,235","bonesetter","false",0.963,1
"1405",164,494,1,"480","smoothie","false",-1.302,1
"1406",164,495,1,"552","sphere","false",-1.086,1
"1407",159,139,1,"1,120","revolutionize","false",2.304,1
"1408",54,137,1,"1,085","conjoint","false",0.384,1
"1409",61,135,1,"894","Goth","false",-0.073,1
"1410",267,140,1,"614","causality","false",-0.71,1
"1411",70,1,1,"716","imperialist","false",-0.368,1
"1412",97,136,1,"1,060","spatter","false",1.445,1
"1413",43,3,1,"455","conferring","false",-1.151,1
"1414",254,134,1,"650","researchers","false",-0.115,1
"1415",165,5,1,"745","introspect","false",0.49,1
"1416",165,8,1,"603","monks","false",-0.25,1
"1417",165,9,1,"621","prospects","false",-0.156,1
"1418",165,12,1,"693","enslave","false",0.219,1
"1419",165,13,1,"630","insistence","false",-0.11,1
"1420",165,15,1,"597","sobered","false",-0.282,1
"1421",165,16,1,"810","immeasurable","false",0.829,1
"1422",165,17,1,"682","Arabia","false",0.162,1
"1423",165,20,1,"599","curtains","false",-0.271,1
"1424",165,21,1,"600","centralized","false",-0.266,1
"1425",165,22,1,"861","upheaval","false",1.095,1
"1426",165,23,1,"670","brittle","false",0.099,1
"1427",165,26,1,"536","sport","false",-0.6,1
"1428",165,28,1,"692","hypothermia","false",0.214,1
"1429",165,29,1,"804","Leningrad's","false",0.798,1
"1430",165,30,1,"636","encase","false",-0.078,1
"1431",165,33,1,"580","translated","false",-0.37,1
"1432",165,37,1,"554","peaches","false",-0.506,1
"1433",165,38,1,"488","Jesse","false",-0.85,1
"1434",165,39,1,"519","fulfill","false",-0.688,1
"1435",165,40,1,"606","recast","false",-0.235,1
"1436",165,44,1,"766","accentuate","false",0.6,1
"1437",165,45,1,"731","sanitation","false",0.417,1
"1438",165,46,1,"754","poses","false",0.537,1
"1439",165,48,1,"587","shamed","false",-0.334,1
"1440",165,49,1,"998","observance","false",1.81,1
"1441",165,50,1,"989","adverbial","false",1.763,1
"1442",165,51,1,"611","coatings","false",-0.209,1
"1443",165,52,1,"539","teammates","false",-0.584,1
"1444",165,53,1,"513","explorers","false",-0.72,1
"1445",165,56,1,"664","eggnog","false",0.068,1
"1446",165,60,1,"557","Indiana","false",-0.49,1
"1447",165,62,1,"1,008","surmises","false",1.862,1
"1448",165,65,1,"723","gratitude","false",0.375,1
"1449",165,66,1,"799","petulance","false",0.772,1
"1450",165,70,1,"611","evaluated","false",-0.209,1
"1451",165,75,1,"612","Rockies","false",-0.203,1
"1452",165,76,1,"563","casing","false",-0.459,1
"1453",165,78,1,"657","interlayer","false",0.031,1
"1454",165,79,1,"777","barium","false",0.657,1
"1455",165,82,1,"643","destitute","false",-0.042,1
"1456",165,83,1,"790","coeditors","false",0.725,1
"1457",165,84,1,"713","wheelbarrow","false",0.323,1
"1458",165,85,1,"654","reciprocal","false",0.016,1
"1459",165,88,1,"632","accuses","false",-0.099,1
"1460",165,89,1,"529","sultry","false",-0.636,1
"1461",165,91,1,"484","tinkling","false",-0.871,1
"1462",165,94,1,"638","universally","false",-0.068,1
"1463",165,95,1,"1,217","differentiable","false",2.952,1
"1464",165,98,1,"619","poisoning","false",-0.167,1
"1465",165,99,1,"766","wallboard","false",0.6,1
"1466",165,101,1,"636","dove","false",-0.078,1
"1467",165,103,1,"851","anagram","false",1.043,1
"1468",165,104,1,"663","sheepskin","false",0.063,1
"1469",165,106,1,"558","heatwave","false",-0.485,1
"1470",165,107,1,"1,758","smolderingly","false",5.773,1
"1471",165,109,1,"499","oxide","false",-0.793,1
"1472",165,110,1,"785","consternate","false",0.699,1
"1473",165,111,1,"826","tradespeople","false",0.913,1
"1474",165,112,1,"775","twentieth","false",0.647,1
"1475",165,115,1,"574","exceptional","false",-0.402,1
"1476",165,117,1,"561","huddle","false",-0.469,1
"1477",165,119,1,"557","isolation","false",-0.49,1
"1478",165,122,1,"652","grandma","false",0.005,1
"1479",165,123,1,"706","temptations","false",0.287,1
"1480",165,124,1,"509","yacht","false",-0.741,1
"1481",165,126,1,"931","jog","false",1.46,1
"1482",165,127,1,"640","optimizing","false",-0.057,1
"1483",165,129,1,"774","fiddlesticks","false",0.641,1
"1484",165,134,1,"629","scuttle","false",-0.115,1
"1485",165,135,1,"610","resettling","false",-0.214,1
"1486",165,139,1,"626","motherhood","false",-0.13,1
"1487",165,141,1,"597","Carnegie","false",-0.282,1
"1488",165,143,1,"583","elaborates","false",-0.355,1
"1489",165,144,1,"813","alcove","false",0.845,1
"1490",165,147,1,"760","comparable","false",0.568,1
"1491",165,148,1,"755","generate","false",0.542,1
"1492",165,149,1,"370","food","false",-1.465,1
"1493",165,150,1,"514","holds","false",-0.714,1
"1494",165,151,1,"524","crockery","false",-0.662,1
"1495",165,152,1,"442","stapler","false",-1.09,1
"1496",165,154,1,"892","spinnaker","false",1.257,1
"1497",165,156,1,"583","overkill","false",-0.355,1
"1498",165,158,1,"564","militia","false",-0.454,1
"1499",165,159,1,"679","guru","false",0.146,1
"1500",165,160,1,"561","dumpy","false",-0.469,1
"1501",165,161,1,"438","patricide","false",-1.111,1
"1502",165,163,1,"497","merman","false",-0.803,1
"1503",165,165,1,"928","Bowie","false",1.445,1
"1504",165,166,1,"588","Nietzsche","false",-0.329,1
"1505",165,168,1,"740","cancelling","false",0.464,1
"1506",165,169,1,"544","loft","false",-0.558,1
"1507",165,171,1,"720","dale","false",0.36,1
"1508",165,172,1,"530","demanded","false",-0.631,1
"1509",165,173,1,"712","scoffing","false",0.318,1
"1510",165,175,1,"702","counterattack","false",0.266,1
"1511",165,177,1,"804","turnaround","false",0.798,1
"1512",165,178,1,"458","expressions","false",-1.006,1
"1513",165,180,1,"582","fuselage","false",-0.36,1
"1514",165,181,1,"429","village","false",-1.158,1
"1515",165,184,1,"820","cooperatives","false",0.881,1
"1516",165,185,1,"539","eradication","false",-0.584,1
"1517",165,186,1,"573","monstrous","false",-0.407,1
"1518",165,189,1,"673","consulted","false",0.115,1
"1519",165,193,1,"969","scandalizing","false",1.658,1
"1520",165,194,1,"484","penis","false",-0.871,1
"1521",165,195,1,"451","acute","false",-1.043,1
"1522",165,198,1,"511","stated","false",-0.73,1
"1523",165,199,1,"798","horsefly","false",0.767,1
"1524",165,200,1,"573","phooey","false",-0.407,1
"1525",165,202,1,"571","uneasiness","false",-0.417,1
"1526",165,203,1,"620","charisma","false",-0.162,1
"1527",165,205,1,"645","prevalence","false",-0.031,1
"1528",165,206,1,"442","tripped","false",-1.09,1
"1529",165,213,1,"654","bugaboo","false",0.016,1
"1530",165,214,1,"924","heightening","false",1.424,1
"1531",165,215,1,"946","Brandywine","false",1.538,1
"1532",165,216,1,"878","irrecoverable","false",1.184,1
"1533",165,217,1,"519","liberating","false",-0.688,1
"1534",165,222,1,"533","handful","false",-0.615,1
"1535",165,223,1,"599","recordings","false",-0.271,1
"1536",165,229,1,"770","verbally","false",0.621,1
"1537",165,230,1,"694","batman","false",0.224,1
"1538",165,232,1,"741","arched","false",0.469,1
"1539",165,233,1,"939","paleolithic","false",1.502,1
"1540",165,235,1,"601","reign","false",-0.261,1
"1541",165,236,1,"503","scrunch","false",-0.772,1
"1542",165,238,1,"601","Gaul","false",-0.261,1
"1543",165,240,1,"468","delete","false",-0.954,1
"1544",165,241,1,"681","Augusta's","false",0.156,1
"1545",165,248,1,"725","holograph","false",0.386,1
"1546",165,250,1,"850","planking","false",1.038,1
"1547",165,251,1,"590","wive's","false",-0.318,1
"1548",165,253,1,"531","Poland","false",-0.626,1
"1549",165,255,1,"845","ordinarily","false",1.012,1
"1550",165,257,1,"628","renting","false",-0.12,1
"1551",165,259,1,"609","toasted","false",-0.219,1
"1552",165,260,1,"1,165","soothsayer","false",2.68,1
"1553",165,262,1,"592","shopkeeper","false",-0.308,1
"1554",165,263,1,"2,339","moonbeam","false",8.803,1
"1555",165,264,1,"538","dazzles","false",-0.589,1
"1556",165,265,1,"522","powerboat","false",-0.673,1
"1557",165,270,1,"644","wholesale","false",-0.037,1
"1558",165,273,1,"779","fairyland","false",0.668,1
"1559",165,279,1,"722","fluorescent","false",0.37,1
"1560",165,281,1,"930","ago","false",1.455,1
"1561",165,282,1,"921","psyches","false",1.408,1
"1562",165,285,1,"939","kindliness","false",1.502,1
"1563",165,288,1,"626","queasy","false",-0.13,1
"1564",165,289,1,"753","perversity","false",0.532,1
"1565",165,290,1,"684","beginners","false",0.172,1
"1566",165,293,1,"764","argumentative","false",0.589,1
"1567",165,296,1,"639","coach's","false",-0.063,1
"1568",165,298,1,"1,104","criticized","false",2.362,1
"1569",165,300,1,"1,019","participial","false",1.919,1
"1570",165,302,1,"598","packages","false",-0.276,1
"1571",165,303,1,"715","choirmaster","false",0.334,1
"1572",165,304,1,"469","has","false",-0.949,1
"1573",165,306,1,"652","fizzy","false",0.005,1
"1574",165,308,1,"630","banquets","false",-0.11,1
"1575",165,313,1,"621","loading","false",-0.156,1
"1576",165,319,1,"711","lying","false",0.313,1
"1577",165,322,1,"522","aimed","false",-0.673,1
"1578",165,325,1,"559","shouldering","false",-0.48,1
"1579",165,328,1,"541","briefly","false",-0.574,1
"1580",165,329,1,"690","Bill's","false",0.203,1
"1581",165,331,1,"780","nag","false",0.673,1
"1582",165,332,1,"490","elf","false",-0.84,1
"1583",165,334,1,"626","foreground","false",-0.13,1
"1584",165,335,1,"571","goodies","false",-0.417,1
"1585",165,337,1,"667","cartoon","false",0.083,1
"1586",165,338,1,"647","adhesive","false",-0.021,1
"1587",165,339,1,"888","gainers","false",1.236,1
"1588",165,341,1,"2,470","dynamism","false",9.486,1
"1589",165,345,1,"637","extensive","false",-0.073,1
"1590",165,348,1,"659","dined","false",0.042,1
"1591",165,351,1,"565","like","false",-0.448,1
"1592",165,352,1,"553","Lee's","false",-0.511,1
"1593",165,355,1,"619","plows","false",-0.167,1
"1594",165,357,1,"846","spurns","false",1.017,1
"1595",165,359,1,"669","purpose","false",0.094,1
"1596",165,361,1,"1,179","antennae","false",2.753,1
"1597",165,362,1,"607","enclave","false",-0.229,1
"1598",165,365,1,"657","tapping","false",0.031,1
"1599",165,369,1,"622","mauler","false",-0.151,1
"1600",165,372,1,"901","originated","false",1.304,1
"1601",165,374,1,"702","hernia","false",0.266,1
"1602",165,376,1,"746","ragtag","false",0.495,1
"1603",165,379,1,"798","inclinations","false",0.767,1
"1604",165,380,1,"535","boundless","false",-0.605,1
"1605",165,381,1,"865","meteorological","false",1.116,1
"1606",165,388,1,"833","chatterbox","false",0.949,1
"1607",165,390,1,"763","Roberto","false",0.584,1
"1608",165,392,1,"678","departs","false",0.141,1
"1609",165,397,1,"635","scratched","false",-0.083,1
"1610",165,399,1,"601","incredibly","false",-0.261,1
"1611",165,403,1,"687","transfered","false",0.188,1
"1612",165,407,1,"589","protrude","false",-0.323,1
"1613",165,411,1,"929","foresaw","false",1.45,1
"1614",165,413,1,"746","informative","false",0.495,1
"1615",165,415,1,"683","braids","false",0.167,1
"1616",165,418,1,"961","tenure","false",1.617,1
"1617",165,422,1,"682","welt","false",0.162,1
"1618",165,424,1,"704","Cinderella","false",0.276,1
"1619",165,426,1,"783","Gothic","false",0.688,1
"1620",165,427,1,"801","cavern","false",0.782,1
"1621",165,428,1,"735","enlargements","false",0.438,1
"1622",165,432,1,"947","finesse","false",1.544,1
"1623",165,433,1,"707","drier","false",0.292,1
"1624",165,437,1,"585","pave","false",-0.344,1
"1625",165,439,1,"906","magnetically","false",1.33,1
"1626",165,441,1,"619","halibut","false",-0.167,1
"1627",165,443,1,"774","swindled","false",0.641,1
"1628",165,444,1,"512","storyline","false",-0.725,1
"1629",165,445,1,"896","trove","false",1.278,1
"1630",165,446,1,"487","realize","false",-0.855,1
"1631",165,450,1,"554","attend","false",-0.506,1
"1632",165,453,1,"960","thoroughfares","false",1.611,1
"1633",165,454,1,"522","see","false",-0.673,1
"1634",165,456,1,"878","bemuse","false",1.184,1
"1635",165,459,1,"694","hooter","false",0.224,1
"1636",165,461,1,"642","dances","false",-0.047,1
"1637",165,465,1,"809","Republicans","false",0.824,1
"1638",165,468,1,"592","quietness","false",-0.308,1
"1639",165,471,1,"669","snag","false",0.094,1
"1640",165,473,1,"624","suddenly","false",-0.141,1
"1641",165,476,1,"761","cordiality","false",0.574,1
"1642",165,478,1,"933","silicon","false",1.471,1
"1643",165,479,1,"712","electoral","false",0.318,1
"1644",165,480,1,"806","highroad","false",0.808,1
"1645",165,482,1,"749","regularity","false",0.511,1
"1646",165,484,1,"831","rooming","false",0.939,1
"1647",165,485,1,"944","triceps","false",1.528,1
"1648",165,486,1,"713","hungry","false",0.323,1
"1649",165,489,1,"826","geophysics","false",0.913,1
"1650",165,490,1,"668","thermally","false",0.089,1
"1651",165,491,1,"594","laudably","false",-0.297,1
"1652",165,497,1,"823","moisten","false",0.897,1
"1653",165,498,1,"639","feeling","false",-0.063,1
"1654",165,499,1,"553","impartial","false",-0.511,1
"1655",166,1,1,"837","October","false",0.156,1
"1656",166,3,1,"834","scrumptious","false",0.146,1
"1657",166,4,1,"642","stir","false",-0.49,1
"1658",166,7,1,"559","whip","false",-0.765,1
"1659",166,8,1,"724","presto","false",-0.219,1
"1660",166,9,1,"813","haddock","false",0.076,1
"1661",166,11,1,"945","rammed","false",0.513,1
"1662",166,12,1,"1,179","acquit","false",1.288,1
"1663",166,13,1,"678","wasteland","false",-0.371,1
"1664",166,16,1,"1,371","mainsail","false",1.924,1
"1665",166,17,1,"1,187","Christopher","false",1.314,1
"1666",166,18,1,"982","mills","false",0.636,1
"1667",166,19,1,"818","uniting","false",0.093,1
"1668",166,20,1,"1,050","Frankfort","false",0.861,1
"1669",166,21,1,"729","phobic","false",-0.202,1
"1670",166,22,1,"758","podiatrist","false",-0.106,1
"1671",166,25,1,"1,319","asocial","false",1.751,1
"1672",166,28,1,"503","comas","false",-0.95,1
"1673",166,31,1,"587","insertion","false",-0.672,1
"1674",166,36,1,"687","ballistic","false",-0.341,1
"1675",166,39,1,"555","phony","false",-0.778,1
"1676",166,41,1,"857","tapioca","false",0.222,1
"1677",166,42,1,"614","pasted","false",-0.583,1
"1678",166,43,1,"934","shorten","false",0.477,1
"1679",166,44,1,"875","escalator","false",0.281,1
"1680",166,47,1,"563","spray","false",-0.752,1
"1681",166,51,1,"1,070","conjecture","false",0.927,1
"1682",166,53,1,"1,622","interstitial","false",2.755,1
"1683",166,55,1,"835","cupped","false",0.149,1
"1684",166,57,1,"1,065","exhumations","false",0.91,1
"1685",166,65,1,"1,581","militarily","false",2.619,1
"1686",166,67,1,"735","apprehended","false",-0.182,1
"1687",166,72,1,"760","mysticism","false",-0.099,1
"1688",166,74,1,"779","disaffected","false",-0.036,1
"1689",166,75,1,"819","trillionth","false",0.096,1
"1690",166,78,1,"525","record","false",-0.877,1
"1691",166,81,1,"591","typed","false",-0.659,1
"1692",166,82,1,"569","kilo","false",-0.732,1
"1693",166,86,1,"688","clips","false",-0.338,1
"1694",166,88,1,"936","disrepute","false",0.483,1
"1695",166,94,1,"1,170","psychiatrists","false",1.258,1
"1696",166,98,1,"1,151","senselessly","false",1.195,1
"1697",166,99,1,"595","toxic","false",-0.646,1
"1698",166,102,1,"675","brewers","false",-0.381,1
"1699",166,105,1,"636","checkbook","false",-0.51,1
"1700",166,106,1,"518","biceps","false",-0.901,1
"1701",166,113,1,"655","feast","false",-0.447,1
"1702",166,116,1,"755","crawling","false",-0.116,1
"1703",166,117,1,"642","prerecord","false",-0.49,1
"1704",166,118,1,"706","pinto","false",-0.278,1
"1705",166,120,1,"691","listlessly","false",-0.328,1
"1706",166,126,1,"781","sedative","false",-0.03,1
"1707",166,128,1,"677","librarians","false",-0.374,1
"1708",166,129,1,"676","subsystem","false",-0.377,1
"1709",166,133,1,"759","clams","false",-0.103,1
"1710",166,134,1,"613","trances","false",-0.586,1
"1711",166,136,1,"868","undertaking","false",0.258,1
"1712",166,137,1,"1,430","retread","false",2.119,1
"1713",166,143,1,"516","hundred","false",-0.907,1
"1714",166,148,1,"889","notary","false",0.328,1
"1715",166,150,1,"742","mammas","false",-0.159,1
"1716",166,151,1,"733","shadowbox","false",-0.189,1
"1717",166,152,1,"695","alcoholic","false",-0.315,1
"1718",166,153,1,"637","choicest","false",-0.507,1
"1719",166,155,1,"691","industrialist","false",-0.328,1
"1720",166,160,1,"580","duplicate","false",-0.695,1
"1721",166,164,1,"592","pronouns","false",-0.656,1
"1722",166,165,1,"536","Tommy's","false",-0.841,1
"1723",166,173,1,"932","emeralds","false",0.47,1
"1724",166,176,1,"905","veering","false",0.381,1
"1725",166,177,1,"540","potty","false",-0.828,1
"1726",166,178,1,"512","gambler","false",-0.92,1
"1727",166,180,1,"617","repeated","false",-0.573,1
"1728",166,181,1,"584","salts","false",-0.682,1
"1729",166,184,1,"895","communities","false",0.348,1
"1730",166,186,1,"634","poking","false",-0.516,1
"1731",166,187,1,"576","way","false",-0.709,1
"1732",166,189,1,"720","decadent","false",-0.232,1
"1733",166,190,1,"482","can","false",-1.02,1
"1734",166,192,1,"714","differential","false",-0.252,1
"1735",166,193,1,"704","atmospheres","false",-0.285,1
"1736",166,198,1,"543","tended","false",-0.818,1
"1737",166,199,1,"581","tasteless","false",-0.692,1
"1738",166,205,1,"590","faint","false",-0.662,1
"1739",166,207,1,"938","exhaling","false",0.49,1
"1740",166,209,1,"488","smart","false",-1,1
"1741",166,211,1,"612","rigorously","false",-0.589,1
"1742",166,213,1,"551","jackets","false",-0.791,1
"1743",166,214,1,"751","Americans","false",-0.129,1
"1744",166,218,1,"691","epitome","false",-0.328,1
"1745",166,220,1,"561","ravishing","false",-0.758,1
"1746",166,221,1,"981","uncolored","false",0.632,1
"1747",166,225,1,"1,321","commune","false",1.758,1
"1748",166,229,1,"626","explores","false",-0.543,1
"1749",166,231,1,"1,062","Koran","false",0.901,1
"1750",166,232,1,"699","mongoose","false",-0.301,1
"1751",166,233,1,"896","fortunately","false",0.351,1
"1752",166,234,1,"640","widows","false",-0.497,1
"1753",166,236,1,"922","gullible","false",0.437,1
"1754",166,238,1,"1,621","runabout","false",2.751,1
"1755",166,240,1,"822","bustle","false",0.106,1
"1756",166,241,1,"858","maturate","false",0.225,1
"1757",166,242,1,"1,036","hope's","false",0.814,1
"1758",166,243,1,"828","scratchy","false",0.126,1
"1759",166,245,1,"852","prosper","false",0.205,1
"1760",166,248,1,"966","dilapidation","false",0.583,1
"1761",166,249,1,"711","religions","false",-0.262,1
"1762",166,251,1,"595","dozens","false",-0.646,1
"1763",166,252,1,"521","planting","false",-0.891,1
"1764",166,255,1,"524","funds","false",-0.881,1
"1765",166,256,1,"398","glory","false",-1.298,1
"1766",166,257,1,"419","tribes","false",-1.228,1
"1767",166,258,1,"808","transcendentalist","false",0.06,1
"1768",166,264,1,"426","follow","false",-1.205,1
"1769",166,266,1,"699","flagrant","false",-0.301,1
"1770",166,267,1,"893","indecisively","false",0.341,1
"1771",166,269,1,"519","babes","false",-0.897,1
"1772",166,275,1,"1,007","unworkable","false",0.718,1
"1773",166,276,1,"703","demographic","false",-0.288,1
"1774",166,277,1,"754","coolheaded","false",-0.119,1
"1775",166,280,1,"460","alike","false",-1.093,1
"1776",166,286,1,"633","structure","false",-0.52,1
"1777",166,287,1,"610","linguist","false",-0.596,1
"1778",166,288,1,"663","verbalize","false",-0.42,1
"1779",166,294,1,"660","enacting","false",-0.43,1
"1780",166,295,1,"890","nightmarish","false",0.331,1
"1781",166,296,1,"1,057","efficiency","false",0.884,1
"1782",166,298,1,"603","bathrooms","false",-0.619,1
"1783",166,299,1,"1,461","primordial","false",2.222,1
"1784",166,300,1,"544","accountants","false",-0.814,1
"1785",166,303,1,"451","blade","false",-1.122,1
"1786",166,306,1,"575","theoretical","false",-0.712,1
"1787",166,309,1,"600","Apollo's","false",-0.629,1
"1788",166,316,1,"899","convicting","false",0.361,1
"1789",166,320,1,"755","fission","false",-0.116,1
"1790",166,322,1,"655","loaned","false",-0.447,1
"1791",166,324,1,"769","glazing","false",-0.07,1
"1792",166,325,1,"541","creep","false",-0.824,1
"1793",166,331,1,"898","module","false",0.358,1
"1794",166,334,1,"657","messing","false",-0.44,1
"1795",166,335,1,"870","ravel","false",0.265,1
"1796",166,336,1,"505","deadly","false",-0.944,1
"1797",166,337,1,"580","bloated","false",-0.695,1
"1798",166,339,1,"626","rims","false",-0.543,1
"1799",166,340,1,"625","projectile","false",-0.546,1
"1800",166,341,1,"687","emphasis","false",-0.341,1
"1801",166,343,1,"562","boroughs","false",-0.755,1
"1802",166,344,1,"749","gratis","false",-0.136,1
"1803",166,347,1,"610","carrying","false",-0.596,1
"1804",166,348,1,"544","gate","false",-0.814,1
"1805",166,349,1,"529","slumbered","false",-0.864,1
"1806",166,358,1,"790","intransitive","false",0,1
"1807",166,365,1,"568","comfortably","false",-0.735,1
"1808",166,366,1,"578","spouse","false",-0.702,1
"1809",166,369,1,"608","Parkinson","false",-0.603,1
"1810",166,372,1,"583","stationed","false",-0.685,1
"1811",166,377,1,"639","beaten","false",-0.5,1
"1812",166,379,1,"706","concordance","false",-0.278,1
"1813",166,380,1,"752","deflated","false",-0.126,1
"1814",166,386,1,"1,347","orate","false",1.844,1
"1815",166,391,1,"1,039","spasmodic","false",0.824,1
"1816",166,394,1,"628","bristly","false",-0.536,1
"1817",166,395,1,"670","immanent","false",-0.397,1
"1818",166,396,1,"681","oboe","false",-0.361,1
"1819",166,397,1,"573","bulbs","false",-0.718,1
"1820",166,399,1,"683","veteran","false",-0.354,1
"1821",166,400,1,"683","autoloader","false",-0.354,1
"1822",166,401,1,"459","nailed","false",-1.096,1
"1823",166,402,1,"505","considered","false",-0.944,1
"1824",166,405,1,"940","formulas","false",0.497,1
"1825",166,406,1,"484","drumhead","false",-1.013,1
"1826",166,407,1,"687","digestible","false",-0.341,1
"1827",166,408,1,"619","afterlife","false",-0.566,1
"1828",166,410,1,"518","calming","false",-0.901,1
"1829",166,416,1,"876","reducer","false",0.285,1
"1830",166,417,1,"625","iguana","false",-0.546,1
"1831",166,418,1,"479","catch","false",-1.03,1
"1832",166,419,1,"608","landlords","false",-0.603,1
"1833",166,420,1,"548","makes","false",-0.801,1
"1834",166,424,1,"937","hostilities","false",0.487,1
"1835",166,425,1,"579","resist","false",-0.699,1
"1836",166,435,1,"701","pheasants","false",-0.295,1
"1837",166,436,1,"549","perished","false",-0.798,1
"1838",166,439,1,"579","shuttle","false",-0.699,1
"1839",166,441,1,"504","wavelength","false",-0.947,1
"1840",166,444,1,"600","birdie","false",-0.629,1
"1841",166,458,1,"992","ridiculing","false",0.669,1
"1842",166,461,1,"854","steamily","false",0.212,1
"1843",166,465,1,"516","dip","false",-0.907,1
"1844",166,466,1,"554","progressively","false",-0.781,1
"1845",166,472,1,"803","ambiguous","false",0.043,1
"1846",166,484,1,"620","overmaster","false",-0.563,1
"1847",166,491,1,"750","suffixes","false",-0.132,1
"1848",166,494,1,"557","lectures","false",-0.771,1
"1849",166,499,1,"576","springboard","false",-0.709,1
"1850",167,2,1,"834","scowl","false",-0.12,1
"1851",167,5,1,"807","housedog","false",-0.201,1
"1852",167,15,1,"1,759","involuntary","false",2.659,1
"1853",167,17,1,"856","railhead","false",-0.054,1
"1854",167,18,1,"585","ink","false",-0.868,1
"1855",167,20,1,"717","catalogs","false",-0.472,1
"1856",167,22,1,"614","plum","false",-0.781,1
"1857",167,24,1,"813","coverall","false",-0.183,1
"1858",167,26,1,"580","account","false",-0.883,1
"1859",167,28,1,"2,060","engagingly","false",3.563,1
"1860",167,30,1,"773","stiffened","false",-0.303,1
"1861",167,31,1,"1,449","apologetically","false",1.728,1
"1862",167,32,1,"800","dynamically","false",-0.222,1
"1863",167,33,1,"733","refresher","false",-0.424,1
"1864",167,41,1,"1,137","gobblers","false",0.79,1
"1865",167,48,1,"536","hardly","false",-1.016,1
"1866",167,50,1,"913","begotten","false",0.117,1
"1867",167,51,1,"776","reviewing","false",-0.294,1
"1868",167,54,1,"737","medication","false",-0.412,1
"1869",167,57,1,"747","Rodney","false",-0.382,1
"1870",167,58,1,"627","expressive","false",-0.742,1
"1871",167,61,1,"771","birthmark","false",-0.309,1
"1872",167,62,1,"851","chances","false",-0.069,1
"1873",167,72,1,"561","outdoor","false",-0.94,1
"1874",167,75,1,"835","affairs","false",-0.117,1
"1875",167,76,1,"1,495","fold","false",1.866,1
"1876",167,77,1,"775","limousine","false",-0.297,1
"1877",167,78,1,"686","airspeed","false",-0.565,1
"1878",167,80,1,"824","surfboard","false",-0.15,1
"1879",167,81,1,"672","Kate's","false",-0.607,1
"1880",167,82,1,"504","boards","false",-1.112,1
"1881",167,85,1,"594","dives","false",-0.841,1
"1882",167,86,1,"906","constituted","false",0.096,1
"1883",167,90,1,"698","amusements","false",-0.529,1
"1884",167,91,1,"557","tease","false",-0.952,1
"1885",167,93,1,"520","joint","false",-1.064,1
"1886",167,95,1,"615","flirtation","false",-0.778,1
"1887",167,106,1,"605","importantly","false",-0.808,1
"1888",167,108,1,"579","bushing","false",-0.886,1
"1889",167,112,1,"774","nerveless","false",-0.3,1
"1890",167,115,1,"516","shear","false",-1.076,1
"1891",167,119,1,"1,598","Albanian","false",2.175,1
"1892",167,120,1,"605","quitting","false",-0.808,1
"1893",167,121,1,"527","cones","false",-1.043,1
"1894",167,125,1,"830","cypress","false",-0.132,1
"1895",167,127,1,"581","modern","false",-0.88,1
"1896",167,133,1,"742","handmade","false",-0.397,1
"1897",167,134,1,"1,124","peasanthood","false",0.751,1
"1898",167,135,1,"802","gratifying","false",-0.216,1
"1899",167,136,1,"765","milestones","false",-0.327,1
"1900",167,137,1,"640","awl","false",-0.703,1
"1901",167,139,1,"827","tosses","false",-0.141,1
"1902",167,141,1,"491","mails","false",-1.151,1
"1903",167,142,1,"711","caskets","false",-0.49,1
"1904",167,145,1,"2,383","equilibriums","false",4.534,1
"1905",167,146,1,"631","decorating","false",-0.73,1
"1906",167,147,1,"765","sculptured","false",-0.327,1
"1907",167,150,1,"779","tumbled","false",-0.285,1
"1908",167,157,1,"907","zippy","false",0.099,1
"1909",167,158,1,"582","everybody's","false",-0.877,1
"1910",167,166,1,"1,184","absoluteness","false",0.931,1
"1911",167,171,1,"724","Syria","false",-0.451,1
"1912",167,173,1,"989","proclamation","false",0.346,1
"1913",167,174,1,"576","dime","false",-0.895,1
"1914",167,175,1,"795","waiter","false",-0.237,1
"1915",167,176,1,"685","whom","false",-0.568,1
"1916",167,180,1,"580","adobe","false",-0.883,1
"1917",167,182,1,"688","kitchens","false",-0.559,1
"1918",167,184,1,"749","matches","false",-0.376,1
"1919",167,186,1,"805","utter","false",-0.207,1
"1920",167,187,1,"852","indications","false",-0.066,1
"1921",167,188,1,"910","unproved","false",0.108,1
"1922",167,190,1,"1,251","melodies","false",1.133,1
"1923",167,198,1,"616","shunted","false",-0.775,1
"1924",167,202,1,"863","Oakland","false",-0.033,1
"1925",167,206,1,"648","exemptions","false",-0.679,1
"1926",167,213,1,"1,378","incoherently","false",1.514,1
"1927",167,219,1,"997","pertains","false",0.37,1
"1928",167,222,1,"632","hoops","false",-0.727,1
"1929",167,224,1,"714","plunder","false",-0.481,1
"1930",167,226,1,"766","mustered","false",-0.324,1
"1931",167,228,1,"801","Carmen","false",-0.219,1
"1932",167,229,1,"1,129","outset","false",0.766,1
"1933",167,231,1,"1,409","civilize","false",1.607,1
"1934",167,232,1,"872","meaningfully","false",-0.006,1
"1935",167,234,1,"907","diagnosis","false",0.099,1
"1936",167,235,1,"1,159","dissatisfaction","false",0.856,1
"1937",167,236,1,"1,415","sidewinder","false",1.625,1
"1938",167,238,1,"735","defeating","false",-0.418,1
"1939",167,241,1,"845","floundered","false",-0.087,1
"1940",167,243,1,"1,120","grudgingly","false",0.739,1
"1941",167,244,1,"658","wildest","false",-0.649,1
"1942",167,245,1,"555","smack","false",-0.958,1
"1943",167,247,1,"604","Dave's","false",-0.811,1
"1944",167,249,1,"1,299","notate","false",1.277,1
"1945",167,252,1,"962","disassembly","false",0.264,1
"1946",167,258,1,"488","battles","false",-1.16,1
"1947",167,261,1,"556","tightest","false",-0.955,1
"1948",167,263,1,"1,031","rascal","false",0.472,1
"1949",167,265,1,"1,188","wretchedness","false",0.943,1
"1950",167,266,1,"1,021","cram","false",0.442,1
"1951",167,269,1,"758","wedded","false",-0.349,1
"1952",167,271,1,"692","blacking","false",-0.547,1
"1953",167,276,1,"820","comprehensively","false",-0.162,1
"1954",167,277,1,"850","investigative","false",-0.072,1
"1955",167,278,1,"633","colorless","false",-0.724,1
"1956",167,279,1,"727","Mario","false",-0.442,1
"1957",167,280,1,"520","motherly","false",-1.064,1
"1958",167,285,1,"1,287","instrumentals","false",1.241,1
"1959",167,286,1,"550","sealing","false",-0.973,1
"1960",167,290,1,"1,236","applicable","false",1.088,1
"1961",167,295,1,"654","brethren","false",-0.661,1
"1962",167,296,1,"847","prohibits","false",-0.081,1
"1963",167,298,1,"623","served","false",-0.754,1
"1964",167,299,1,"1,022","squirms","false",0.445,1
"1965",167,301,1,"2,126","idiocy","false",3.762,1
"1966",167,303,1,"2,129","encampment","false",3.771,1
"1967",167,304,1,"783","calcium","false",-0.273,1
"1968",167,309,1,"3,436","gridiron","false",7.697,1
"1969",167,310,1,"673","logical","false",-0.604,1
"1970",167,312,1,"629","sounded","false",-0.736,1
"1971",167,314,1,"1,037","Calvary","false",0.49,1
"1972",167,315,1,"1,198","electronically","false",0.973,1
"1973",167,320,1,"729","divorce","false",-0.436,1
"1974",167,323,1,"627","answers","false",-0.742,1
"1975",167,324,1,"688","second","false",-0.559,1
"1976",167,330,1,"756","disorganized","false",-0.355,1
"1977",167,331,1,"1,228","featherbrained","false",1.064,1
"1978",167,332,1,"1,185","burlap","false",0.934,1
"1979",167,334,1,"1,027","Reuben","false",0.46,1
"1980",167,338,1,"795","insolently","false",-0.237,1
"1981",167,340,1,"908","contemplate","false",0.102,1
"1982",167,341,1,"906","meetinghouse","false",0.096,1
"1983",167,345,1,"715","objective","false",-0.478,1
"1984",167,348,1,"897","packaging","false",0.069,1
"1985",167,349,1,"669","horizon","false",-0.616,1
"1986",167,351,1,"932","rearranged","false",0.174,1
"1987",167,352,1,"603","charmed","false",-0.814,1
"1988",167,355,1,"1,075","bridgehead","false",0.604,1
"1989",167,358,1,"888","declaratory","false",0.042,1
"1990",167,360,1,"584","drivers","false",-0.871,1
"1991",167,362,1,"556","puts","false",-0.955,1
"1992",167,364,1,"1,342","protectionism","false",1.406,1
"1993",167,365,1,"672","crumbling","false",-0.607,1
"1994",167,368,1,"618","headman","false",-0.769,1
"1995",167,370,1,"611","cases","false",-0.79,1
"1996",167,375,1,"796","neurotic","false",-0.234,1
"1997",167,380,1,"725","noun","false",-0.448,1
"1998",167,386,1,"614","successful","false",-0.781,1
